AccX,AccY,AccZ,GyroX,GyroY,GyroZ
0.42,-0.46,-9.99,-0.01,0.0,0.03
0.41,-0.42,-9.95,-0.01,0.01,0.03
0.38,-0.46,-10.01,-0.02,0.01,0.02
0.49,-0.44,-9.94,-0.01,0.01,0.02
0.49,-0.44,-9.94,-0.01,0.0,0.03
0.35,-0.45,-10.05,-0.01,0.01,0.03
0.44,-0.51,-10.06,-0.01,0.0,0.03
0.46,-0.37,-10.07,-0.01,0.01,0.02
0.46,-0.37,-10.07,-0.01,0.0,0.03
0.46,-0.44,-10.04,-0.01,0.0,0.03
0.35,-0.5,-9.96,-0.01,0.01,0.03
0.35,-0.5,-9.96,-0.01,0.01,0.02
0.46,-0.39,-9.94,-0.01,0.01,0.03
0.42,-0.38,-10.04,-0.01,0.01,0.03
0.47,-0.34,-9.95,-0.01,0.01,0.03
0.47,-0.34,-9.95,-0.02,0.01,0.03
0.44,-0.38,-9.97,-0.01,0.01,0.02
0.45,-0.42,-9.99,-0.01,0.0,0.02
0.48,-0.44,-10.03,-0.01,0.01,0.02
0.48,-0.44,-10.03,-0.01,0.01,0.02
0.46,-0.45,-10.01,-0.01,0.01,0.02
0.44,-0.42,-10.0,-0.01,0.0,0.03
0.44,-0.42,-10.0,-0.01,0.01,0.02
0.46,-0.4,-9.93,-0.01,0.0,0.03
0.44,-0.4,-9.95,-0.01,0.0,0.02
0.45,-0.45,-10.04,-0.01,0.01,0.03
0.45,-0.45,-10.04,-0.01,0.01,0.02
0.45,-0.43,-10.06,-0.01,0.0,0.03
0.47,-0.38,-10.02,-0.02,0.02,0.02
0.46,-0.36,-9.96,-0.01,0.01,0.03
0.46,-0.36,-9.96,-0.02,0.01,0.03
0.51,-0.39,-10.0,-0.01,0.01,0.03
0.38,-0.42,-9.83,-0.01,0.01,0.02
0.38,-0.42,-9.83,-0.01,0.0,0.02
0.34,-0.39,-9.99,-0.01,0.0,0.02
0.46,-0.42,-9.92,-0.01,0.01,0.03
0.4,-0.38,-10.0,-0.01,0.0,0.02
0.4,-0.38,-10.0,-0.01,0.01,0.02
0.48,-0.39,-10.03,-0.01,0.0,0.02
0.45,-0.38,-9.96,-0.01,0.01,0.02
0.48,-0.44,-10.0,-0.01,0.01,0.02
0.48,-0.44,-10.0,-0.02,0.01,0.02
0.45,-0.42,-9.99,-0.01,0.01,0.03
0.36,-0.42,-10.01,-0.01,0.02,0.03
0.53,-0.46,-10.12,-0.01,0.01,0.03
0.53,-0.46,-10.12,-0.01,0.01,0.03
0.44,-0.45,-9.95,-0.01,0.01,0.03
0.37,-0.46,-9.93,-0.01,0.01,0.02
0.37,-0.46,-9.93,-0.01,0.01,0.02
0.4,-0.44,-10.02,-0.02,0.01,0.03
0.4,-0.4,-9.99,-0.01,0.0,0.03
0.44,-0.39,-9.97,-0.01,0.0,0.02
0.44,-0.39,-9.97,-0.01,0.01,0.03
0.42,-0.41,-10.05,-0.01,0.01,0.02
0.42,-0.48,-10.05,-0.01,0.01,0.02
0.44,-0.45,-9.95,-0.02,0.01,0.03
0.44,-0.45,-9.95,-0.01,0.0,0.03
0.43,-0.48,-9.94,-0.01,0.01,0.03
0.41,-0.43,-9.97,-0.02,0.01,0.03
0.41,-0.43,-9.97,-0.01,0.0,0.03
0.45,-0.48,-10.03,-0.01,0.01,0.03
0.45,-0.39,-10.06,-0.01,0.01,0.03
0.44,-0.41,-9.97,-0.01,0.01,0.03
0.44,-0.41,-9.97,-0.01,0.01,0.02
0.46,-0.47,-10.01,-0.01,0.01,0.03
0.43,-0.38,-10.02,-0.01,-0.0,0.03
0.39,-0.4,-10.03,-0.01,0.01,0.03
0.39,-0.4,-10.03,-0.02,0.01,0.03
0.45,-0.45,-9.91,-0.01,0.01,0.02
0.41,-0.47,-10.03,-0.01,0.01,0.03
0.41,-0.47,-10.03,-0.01,0.01,0.02
0.41,-0.42,-10.01,-0.01,0.01,0.03
0.47,-0.39,-10.04,-0.01,0.01,0.03
0.43,-0.43,-10.05,-0.01,0.02,0.03
0.43,-0.43,-10.05,-0.01,0.01,0.02
0.61,-0.46,-10.27,-0.01,0.04,0.03
0.67,-0.63,-10.19,-0.02,0.01,0.02
0.59,-0.56,-9.36,-0.0,0.1,0.02
0.59,-0.56,-9.36,-0.01,0.08,0.03
0.61,-0.52,-9.91,-0.01,-0.08,0.04
0.07,-0.32,-10.25,-0.03,0.06,0.02
0.07,-0.32,-10.25,-0.01,0.04,0.02
0.11,-0.3,-10.12,-0.01,0.01,0.02
0.35,-0.44,-9.7,-0.01,0.02,0.02
0.59,-0.34,-9.61,-0.0,0.01,0.01
0.59,-0.34,-9.61,-0.01,-0.0,0.03
0.68,-0.51,-10.07,-0.01,0.02,0.03
0.65,-0.52,-10.2,-0.01,-0.01,0.03
0.55,-0.54,-9.94,-0.01,-0.01,0.03
0.55,-0.54,-9.94,-0.01,0.02,0.03
0.43,-0.57,-9.84,-0.02,-0.01,0.03
0.15,-0.25,-10.06,-0.01,0.01,0.03
0.12,-0.19,-10.05,-0.01,0.01,0.03
0.12,-0.19,-10.05,-0.02,-0.01,0.03
0.41,-0.36,-9.9,-0.01,0.03,0.02
0.75,-0.61,-9.92,-0.0,-0.01,0.03
0.75,-0.61,-9.92,-0.01,0.01,0.03
0.68,-0.57,-10.02,-0.01,0.0,0.03
0.38,-0.45,-9.94,-0.01,0.06,0.03
0.22,-0.31,-9.86,-0.01,-0.01,0.03
0.22,-0.31,-9.86,-0.01,0.0,0.02
0.25,-0.41,-10.02,-0.01,0.0,0.03
0.41,-0.41,-10.07,-0.01,0.02,0.03
0.46,-0.46,-9.99,-0.01,0.01,0.03
0.46,-0.46,-9.99,-0.01,0.0,0.03
0.59,-0.39,-9.97,-0.01,0.01,0.02
0.59,-0.52,-9.94,-0.01,0.0,0.03
0.59,-0.52,-9.94,-0.01,0.0,0.03
0.45,-0.39,-9.99,-0.01,0.01,0.03
0.3,-0.36,-9.91,-0.02,0.01,0.03
0.12,-0.34,-9.92,-0.01,-0.01,0.03
0.12,-0.34,-9.92,-0.01,0.0,0.02
0.43,-0.48,-9.97,-0.01,0.01,0.02
0.57,-0.49,-9.9,-0.02,0.01,0.03
0.58,-0.36,-9.87,-0.01,0.01,0.03
0.58,-0.36,-9.87,-0.01,0.0,0.03
0.44,-0.4,-10.06,-0.01,0.01,0.02
0.37,-0.42,-10.01,-0.01,0.0,0.02
0.37,-0.42,-10.01,-0.01,0.0,0.03
0.2,-0.51,-10.23,-0.01,0.0,0.03
0.36,-0.47,-9.97,-0.01,0.0,0.03
0.48,-0.29,-9.85,-0.01,0.01,0.02
0.48,-0.29,-9.85,-0.01,0.01,0.02
0.65,-0.34,-9.99,-0.02,-0.01,0.02
0.52,-0.45,-9.95,-0.01,0.01,0.03
0.34,-0.48,-10.02,-0.01,0.01,0.03
0.34,-0.48,-10.02,-0.02,0.01,0.03
0.21,-0.53,-9.97,-0.01,0.01,0.03
0.24,-0.46,-10.03,-0.02,0.01,0.03
0.24,-0.46,-10.03,-0.02,0.01,0.03
0.45,-0.4,-9.98,-0.02,0.0,0.03
0.61,-0.37,-10.03,-0.01,0.01,0.03
0.51,-0.42,-9.92,-0.02,0.01,0.03
0.51,-0.42,-9.92,-0.01,0.01,0.03
0.36,-0.42,-10.01,-0.01,0.0,0.02
0.32,-0.51,-10.11,-0.01,0.01,0.03
0.3,-0.46,-10.02,-0.01,0.01,0.03
0.3,-0.46,-10.02,-0.01,0.01,0.03
0.44,-0.41,-9.96,-0.01,0.01,0.02
0.56,-0.34,-9.99,-0.01,0.0,0.02
0.56,-0.34,-9.99,-0.01,0.0,0.02
0.58,-0.39,-9.93,-0.01,0.01,0.03
0.51,-0.47,-10.03,-0.01,-0.0,0.03
0.39,-0.41,-10.02,-0.01,0.0,0.03
0.39,-0.41,-10.02,-0.01,0.01,0.03
0.3,-0.37,-9.93,-0.01,-0.0,0.03
0.36,-0.37,-10.02,-0.01,0.0,0.02
0.48,-0.44,-9.95,-0.01,0.01,0.03
0.48,-0.44,-9.95,-0.01,0.01,0.02
0.52,-0.4,-10.19,-0.01,0.01,0.02
0.5,-0.42,-9.95,-0.01,0.01,0.02
0.37,-0.43,-9.97,-0.01,0.01,0.03
0.37,-0.43,-9.97,-0.01,0.01,0.03
0.33,-0.44,-9.93,-0.01,0.01,0.03
0.28,-0.39,-10.03,-0.02,0.01,0.03
0.28,-0.39,-10.03,-0.01,0.0,0.02
0.36,-0.38,-9.99,-0.01,0.0,0.03
0.44,-0.44,-10.01,-0.01,0.01,0.03
0.56,-0.42,-9.95,-0.01,0.01,0.02
0.56,-0.42,-9.95,-0.01,0.01,0.02
0.54,-0.42,-9.92,-0.01,0.01,0.03
0.39,-0.46,-10.04,-0.01,0.01,0.02
0.31,-0.45,-10.07,-0.01,0.01,0.03
0.31,-0.45,-10.07,-0.01,0.0,0.03
0.33,-0.4,-10.02,-0.01,0.01,0.03
0.44,-0.43,-10.04,-0.02,0.01,0.03
0.54,-0.39,-9.92,-0.01,0.0,0.03
0.54,-0.39,-9.92,-0.01,0.01,0.03
0.54,-0.44,-9.93,-0.01,0.01,0.03
0.5,-0.47,-10.05,-0.02,0.01,0.03
0.5,-0.47,-10.05,-0.01,0.01,0.03
0.36,-0.41,-10.15,-0.01,0.01,0.03
0.37,-0.41,-10.02,-0.01,-0.0,0.03
0.37,-0.33,-9.98,-0.01,0.02,0.02
0.37,-0.33,-9.98,-0.02,0.02,0.02
0.49,-0.4,-10.01,-0.01,-0.0,0.02
0.53,-0.34,-9.96,-0.01,0.01,0.02
0.57,-0.51,-9.92,-0.02,0.0,0.02
0.57,-0.51,-9.92,-0.01,0.01,0.02
0.46,-0.47,-9.96,-0.01,0.01,0.03
0.32,-0.3,-9.99,-0.01,0.0,0.03
0.27,-0.37,-9.97,-0.01,0.02,0.02
0.27,-0.37,-9.97,-0.01,0.01,0.02
0.48,-0.33,-9.98,-0.0,0.01,0.03
0.5,-0.47,-9.99,-0.01,0.01,0.03
0.5,-0.47,-9.99,-0.02,0.01,0.03
0.55,-0.43,-9.99,-0.01,0.01,0.02
0.46,-0.47,-9.89,-0.01,0.01,0.02
0.36,-0.35,-9.9,-0.01,0.0,0.03
0.36,-0.35,-9.9,-0.01,0.0,0.02
0.28,-0.36,-10.03,-0.02,0.01,0.03
0.29,-0.3,-9.99,-0.01,0.01,0.03
0.46,-0.45,-10.02,-0.01,0.01,0.02
0.46,-0.45,-10.02,-0.02,0.01,0.03
0.59,-0.47,-9.97,-0.01,0.0,0.02
0.55,-0.43,-9.93,-0.02,0.01,0.03
0.55,-0.43,-9.93,-0.02,0.01,0.03
0.41,-0.34,-10.03,-0.01,0.01,0.03
0.36,-0.47,-9.96,-0.01,0.01,0.03
0.38,-0.4,-10.04,-0.02,0.0,0.02
0.38,-0.4,-10.04,-0.01,0.0,0.03
0.43,-0.43,-9.99,-0.02,0.01,0.03
0.42,-0.46,-9.93,-0.01,0.0,0.02
0.44,-0.39,-9.99,-0.01,0.0,0.02
0.44,-0.39,-9.99,-0.01,0.01,0.02
0.48,-0.42,-9.99,-0.01,0.01,0.03
0.45,-0.4,-10.0,-0.01,0.0,0.03
0.4,-0.42,-10.0,-0.01,0.01,0.03
0.4,-0.42,-10.0,-0.01,0.02,0.03
0.38,-0.36,-10.01,-0.01,0.0,0.02
0.42,-0.46,-9.97,-0.01,0.01,0.02
0.42,-0.46,-9.97,-0.01,0.01,0.03
0.44,-0.39,-10.03,-0.01,0.02,0.02
0.45,-0.38,-9.96,-0.01,0.01,0.02
0.41,-0.42,-10.0,-0.01,0.01,0.03
0.41,-0.42,-10.0,-0.01,0.01,0.03
0.44,-0.41,-9.98,-0.01,0.0,0.03
0.47,-0.44,-10.02,-0.01,0.01,0.03
0.34,-0.48,-10.03,-0.01,0.02,0.03
0.34,-0.48,-10.03,-0.01,0.0,0.02
0.41,-0.33,-9.96,-0.01,0.01,0.03
0.5,-0.45,-10.04,-0.01,0.0,0.03
0.5,-0.45,-10.04,-0.02,0.0,0.02
0.45,-0.4,-9.98,-0.0,0.01,0.03
0.4,-0.41,-10.03,-0.01,0.01,0.03
0.45,-0.38,-9.99,-0.01,0.01,0.03
0.45,-0.38,-9.99,-0.02,0.0,0.03
0.4,-0.4,-10.01,-0.0,0.01,0.03
0.48,-0.48,-9.97,-0.01,0.01,0.03
0.45,-0.38,-10.01,-0.01,0.01,0.03
0.45,-0.38,-10.01,-0.01,0.01,0.03
0.42,-0.43,-10.0,-0.01,0.0,0.03
0.43,-0.39,-10.03,-0.01,0.0,0.02
0.43,-0.39,-10.03,-0.01,0.01,0.03
0.42,-0.43,-10.03,-0.01,0.0,0.02
0.43,-0.43,-10.01,-0.01,0.0,0.02
0.41,-0.42,-9.99,-0.01,0.01,0.02
0.41,-0.42,-9.99,-0.01,0.01,0.03
0.47,-0.44,-9.98,-0.01,0.0,0.03
0.46,-0.46,-9.98,-0.01,0.01,0.02
0.42,-0.43,-9.99,-0.01,0.01,0.03
0.42,-0.43,-9.99,-0.02,0.0,0.03
0.42,-0.41,-9.97,-0.01,0.01,0.02
0.43,-0.45,-9.89,-0.01,0.0,0.03
0.43,-0.45,-9.89,-0.01,0.0,0.03
0.43,-0.4,-9.99,-0.01,0.01,0.03
0.41,-0.42,-9.95,-0.01,0.0,0.03
0.48,-0.37,-10.07,-0.02,0.01,0.04
0.48,-0.37,-10.07,-0.01,0.01,0.03
0.47,-0.43,-9.95,-0.01,-0.0,0.03
0.46,-0.44,-9.96,-0.02,0.01,0.02
0.46,-0.48,-10.01,-0.02,0.01,0.03
0.46,-0.48,-10.01,-0.01,0.01,0.03
0.43,-0.38,-10.03,-0.01,0.0,0.03
0.51,-0.43,-10.07,-0.01,0.01,0.03
0.51,-0.43,-10.07,-0.01,0.01,0.03
0.51,-0.36,-9.91,-0.01,0.01,0.03
0.39,-0.32,-9.9,-0.01,0.0,0.02
0.44,-0.37,-10.0,-0.01,0.0,0.03
0.44,-0.37,-10.0,-0.01,0.01,0.03
0.47,-0.33,-9.87,-0.01,0.01,0.04
0.43,-0.55,-9.93,-0.01,0.01,0.02
0.27,-0.55,-10.06,-0.02,-0.01,0.08
0.27,-0.55,-10.06,-0.01,0.03,-0.01
0.51,-0.37,-10.07,-0.01,0.0,0.03
0.48,-0.4,-9.93,-0.01,0.0,0.02
0.48,-0.4,-9.93,-0.01,-0.01,0.02
0.5,-0.41,-9.98,-0.01,0.01,0.03
0.41,-0.5,-10.04,-0.01,0.02,0.02
0.44,-0.46,-9.95,-0.01,0.01,0.03
0.44,-0.46,-9.95,-0.01,0.01,0.03
0.51,-0.46,-10.03,-0.01,0.0,0.03
0.48,-0.43,-10.02,-0.01,0.01,0.03
0.46,-0.4,-9.98,-0.01,0.01,0.03
0.46,-0.4,-9.98,-0.01,0.0,0.03
0.45,-0.35,-9.97,-0.02,0.01,0.03
0.39,-0.38,-9.99,-0.01,0.01,0.03
0.39,-0.38,-9.99,-0.01,0.01,0.03
0.43,-0.34,-9.96,-0.01,0.01,0.02
0.35,-0.37,-9.86,-0.01,0.01,0.03
0.57,-0.42,-9.94,-0.01,0.01,0.03
0.57,-0.42,-9.94,-0.01,0.0,0.03
0.56,-0.5,-9.97,-0.01,0.01,0.03
0.54,-0.42,-9.98,-0.01,0.0,0.03
0.46,-0.37,-9.98,-0.01,0.01,0.03
0.46,-0.37,-9.98,-0.01,0.01,0.03
0.34,-0.31,-9.97,-0.02,0.01,0.03
0.41,-0.36,-9.92,-0.01,0.01,0.03
0.41,-0.36,-9.92,-0.01,0.0,0.02
0.44,-0.4,-10.07,-0.02,0.02,0.03
0.43,-0.49,-9.97,-0.01,0.01,0.02
0.54,-0.47,-10.0,-0.01,0.01,0.03
0.54,-0.47,-10.0,-0.01,0.01,0.03
0.44,-0.39,-9.94,-0.02,0.01,0.03
0.44,-0.46,-10.0,-0.01,0.01,0.03
0.4,-0.45,-9.98,-0.02,0.01,0.03
0.4,-0.45,-9.98,-0.01,0.0,0.03
0.42,-0.42,-9.99,-0.01,0.0,0.02
0.45,-0.47,-9.94,-0.02,0.01,0.02
0.45,-0.47,-9.94,-0.01,0.0,0.03
0.43,-0.46,-9.99,-0.01,0.01,0.03
0.42,-0.4,-9.99,-0.01,0.01,0.03
0.44,-0.41,-9.99,-0.01,0.01,0.03
0.44,-0.41,-9.99,-0.01,0.02,0.03
0.48,-0.45,-10.02,-0.02,0.01,0.03
0.43,-0.41,-10.0,-0.02,0.02,0.02
0.41,-0.43,-9.98,-0.01,0.01,0.03
0.41,-0.43,-9.98,-0.01,0.0,0.03
0.52,-0.39,-9.94,-0.01,0.01,0.02
0.52,-0.37,-9.93,-0.02,0.01,0.03
0.52,-0.37,-9.93,-0.02,0.01,0.03
0.44,-0.36,-9.93,-0.01,0.01,0.03
0.5,-0.38,-9.87,-0.01,0.01,0.03
0.44,-0.43,-9.96,-0.01,0.01,0.02
0.44,-0.43,-9.96,-0.01,0.01,0.02
0.45,-0.47,-9.97,-0.01,0.0,0.03
0.47,-0.42,-10.1,-0.01,0.01,0.03
0.34,-0.38,-10.0,-0.01,0.01,0.03
0.34,-0.38,-10.0,-0.02,0.01,0.02
0.45,-0.34,-10.04,-0.01,0.01,0.02
0.38,-0.41,-10.02,-0.02,0.01,0.03
0.38,-0.41,-10.02,-0.02,0.01,0.02
0.42,-0.41,-9.98,-0.01,0.0,0.03
0.42,-0.47,-9.98,-0.01,0.01,0.02
0.45,-0.47,-9.99,-0.01,-0.0,0.02
0.45,-0.47,-9.99,-0.01,0.02,0.02
0.48,-0.37,-10.02,-0.02,0.02,0.02
0.46,-0.48,-10.01,0.0,0.01,0.02
0.46,-0.48,-10.01,-0.01,0.01,0.03
0.41,-0.36,-10.02,-0.01,0.01,0.03
0.41,-0.45,-10.07,-0.01,0.01,0.03
0.45,-0.4,-10.01,-0.01,0.01,0.03
0.45,-0.4,-10.01,-0.01,0.01,0.02
0.35,-0.47,-9.93,-0.01,0.01,0.03
0.4,-0.41,-9.97,-0.01,0.01,0.03
0.4,-0.42,-9.96,-0.01,0.0,0.03
0.4,-0.42,-9.96,-0.01,0.01,0.03
0.4,-0.37,-9.98,-0.02,0.01,0.03
0.42,-0.43,-10.0,-0.01,0.01,0.02
0.42,-0.43,-10.0,-0.01,0.01,0.03
0.45,-0.36,-9.92,-0.01,0.01,0.03
0.37,-0.38,-10.01,-0.01,0.03,0.03
0.44,-0.5,-10.05,-0.01,-0.01,0.02
0.44,-0.5,-10.05,-0.01,0.03,0.03
0.51,-0.51,-10.11,-0.01,0.01,0.02
0.4,-0.53,-9.93,-0.0,0.0,0.03
0.45,-0.44,-10.14,-0.01,-0.01,0.02
0.45,-0.44,-10.14,-0.01,-0.04,0.04
0.25,-0.35,-10.36,-0.01,0.07,0.02
0.25,-0.3,-10.18,-0.02,0.04,0.02
0.25,-0.3,-10.18,-0.01,0.0,0.03
0.32,-0.34,-9.96,-0.01,0.01,0.03
0.49,-0.44,-9.99,-0.01,0.02,0.03
0.47,-0.52,-10.03,-0.01,0.02,0.03
0.47,-0.52,-10.03,-0.01,0.01,0.03
0.42,-0.47,-10.03,-0.01,0.01,0.03
0.33,-0.36,-10.0,-0.01,0.01,0.02
0.39,-0.36,-9.94,-0.01,0.01,0.03
0.39,-0.36,-9.94,-0.01,0.0,0.03
0.35,-0.4,-9.92,-0.01,0.0,0.02
0.42,-0.46,-9.98,-0.02,0.02,0.03
0.46,-0.44,-10.0,-0.02,-0.0,0.02
0.46,-0.44,-10.0,-0.01,-0.0,0.03
0.43,-0.45,-9.99,-0.01,0.01,0.03
0.46,-0.41,-9.93,-0.01,0.0,0.03
0.46,-0.41,-9.93,-0.01,0.01,0.03
0.42,-0.41,-10.02,-0.01,0.01,0.03
0.39,-0.38,-10.04,-0.01,0.0,0.02
0.45,-0.48,-9.97,-0.02,0.0,0.03
0.45,-0.48,-9.97,-0.02,0.01,0.02
0.46,-0.49,-9.96,-0.01,0.0,0.03
0.58,-0.37,-10.0,-0.02,0.0,0.03
0.43,-0.38,-9.94,-0.01,0.02,0.03
0.43,-0.38,-9.94,-0.01,0.01,0.03
0.45,-0.39,-9.95,-0.01,0.01,0.03
0.46,-0.44,-9.98,-0.01,0.0,0.03
0.46,-0.44,-9.98,-0.01,0.01,0.02
0.48,-0.45,-9.93,-0.01,0.01,0.03
0.49,-0.39,-9.98,-0.01,0.0,0.03
0.47,-0.41,-9.99,-0.01,0.02,0.02
0.47,-0.41,-9.99,-0.02,0.01,0.03
0.41,-0.39,-9.98,-0.01,0.01,0.03
0.49,-0.37,-10.0,-0.01,0.0,0.02
0.49,-0.37,-10.0,-0.02,0.01,0.03
0.38,-0.42,-10.06,-0.01,0.0,0.03
0.44,-0.44,-9.96,-0.01,0.0,0.03
0.45,-0.46,-9.97,-0.01,0.01,0.03
0.45,-0.46,-9.97,-0.01,0.01,0.02
0.41,-0.37,-10.01,-0.02,0.01,0.02
0.52,-0.39,-9.96,-0.01,0.01,0.03
0.44,-0.47,-9.99,-0.01,0.01,0.03
0.44,-0.47,-9.99,-0.01,0.0,0.03
0.39,-0.4,-9.99,-0.01,0.01,0.02
0.43,-0.36,-9.98,-0.01,0.0,0.03
0.43,-0.36,-9.98,-0.01,0.0,0.03
0.4,-0.38,-9.94,-0.01,0.01,0.02
0.47,-0.4,-10.07,-0.01,0.01,0.02
0.41,-0.41,-9.96,-0.01,0.01,0.03
0.41,-0.41,-9.96,-0.01,0.01,0.03
0.46,-0.47,-10.0,-0.01,0.01,0.03
0.4,-0.4,-10.0,-0.01,0.01,0.02
0.43,-0.41,-9.99,-0.01,0.01,0.03
0.43,-0.41,-9.99,-0.01,-0.01,0.03
0.41,-0.41,-10.02,-0.01,0.0,0.03
0.43,-0.46,-9.98,-0.01,0.01,0.03
0.43,-0.46,-9.98,-0.02,0.0,0.02
0.42,-0.39,-9.93,-0.01,0.01,0.03
0.49,-0.42,-9.97,-0.01,0.01,0.03
0.4,-0.43,-9.93,-0.01,0.0,0.03
0.4,-0.43,-9.93,-0.01,-0.0,0.02
0.4,-0.43,-9.95,-0.02,0.01,0.03
0.44,-0.41,-9.96,-0.01,0.01,0.03
0.46,-0.38,-10.02,-0.01,0.01,0.03
0.46,-0.38,-10.02,-0.01,0.01,0.02
0.46,-0.43,-10.01,-0.01,0.0,0.03
0.46,-0.46,-9.98,-0.02,0.0,0.02
0.46,-0.46,-9.98,-0.01,0.01,0.03
0.46,-0.46,-10.0,-0.01,0.0,0.02
0.43,-0.44,-10.0,-0.01,0.01,0.03
0.37,-0.41,-9.99,-0.01,0.02,0.03
0.37,-0.41,-9.99,-0.02,0.0,0.02
0.36,-0.41,-10.01,-0.01,0.0,0.02
0.43,-0.42,-10.01,-0.01,0.01,0.02
0.46,-0.42,-9.99,-0.02,0.01,0.02
0.46,-0.42,-9.99,-0.01,0.0,0.02
0.4,-0.44,-9.97,-0.02,0.01,0.03
0.45,-0.51,-9.9,-0.01,0.01,0.02
0.45,-0.51,-9.9,-0.01,0.0,0.03
0.47,-0.46,-10.03,-0.01,0.0,0.03
0.41,-0.4,-9.96,-0.02,0.02,0.02
0.4,-0.41,-9.96,-0.01,0.0,0.02
0.4,-0.41,-9.96,-0.01,0.01,0.03
0.46,-0.4,-10.04,-0.01,0.01,0.02
0.47,-0.42,-9.96,-0.02,0.01,0.02
0.47,-0.42,-9.96,-0.0,0.01,0.03
0.44,-0.44,-10.01,-0.02,0.01,0.02
0.37,-0.42,-9.94,-0.01,0.01,0.03
0.43,-0.39,-9.9,-0.01,0.01,0.03
0.43,-0.39,-9.9,-0.01,0.01,0.03
0.39,-0.46,-10.01,-0.01,0.0,0.03
0.44,-0.31,-9.98,-0.01,0.0,0.03
0.38,-0.4,-9.91,-0.01,0.01,0.02
0.38,-0.4,-9.91,-0.01,0.0,0.02
0.44,-0.44,-10.1,-0.01,0.01,0.03
0.46,-0.46,-10.0,-0.01,0.02,0.03
0.49,-0.46,-9.99,-0.01,0.01,0.03
0.49,-0.46,-9.99,-0.01,0.01,0.03
0.44,-0.38,-10.05,-0.01,0.01,0.03
0.43,-0.37,-10.07,-0.01,0.0,0.03
0.43,-0.37,-10.07,-0.01,0.01,0.03
0.44,-0.38,-9.93,-0.01,0.01,0.02
0.47,-0.43,-9.98,-0.01,0.01,0.03
0.41,-0.4,-10.06,-0.01,0.01,0.03
0.41,-0.4,-10.06,-0.01,0.01,0.02
0.42,-0.42,-9.95,-0.01,0.01,0.03
0.41,-0.45,-10.04,-0.01,0.01,0.02
0.45,-0.42,-10.01,-0.01,0.0,0.02
0.45,-0.42,-10.01,-0.01,-0.0,0.03
0.39,-0.37,-10.0,-0.02,0.0,0.03
0.41,-0.44,-10.01,-0.01,0.01,0.02
0.41,-0.44,-10.01,-0.01,0.01,0.02
0.48,-0.46,-10.02,-0.01,0.01,0.02
0.46,-0.37,-9.93,-0.01,0.01,0.03
0.4,-0.42,-9.85,-0.01,0.01,0.03
0.4,-0.42,-9.85,-0.01,0.0,0.03
0.45,-0.41,-10.03,-0.01,0.01,0.03
0.41,-0.39,-9.99,-0.01,0.0,0.03
0.38,-0.41,-10.04,-0.01,0.0,0.02
0.38,-0.41,-10.04,-0.01,0.0,0.02
0.46,-0.43,-10.12,-0.01,0.01,0.02
0.51,-0.45,-9.91,-0.01,0.0,0.03
0.51,-0.45,-9.91,-0.01,0.01,0.03
0.41,-0.47,-10.0,-0.01,0.01,0.03
0.42,-0.43,-9.99,-0.0,0.01,0.02
0.39,-0.41,-10.08,-0.01,0.01,0.03
0.39,-0.41,-10.08,-0.01,0.0,0.02
0.45,-0.44,-10.1,-0.01,0.0,0.03
0.44,-0.43,-10.02,-0.01,0.01,0.03
0.42,-0.35,-10.01,-0.01,0.01,0.02
0.42,-0.35,-10.01,-0.01,0.0,0.02
0.42,-0.46,-10.01,-0.01,0.01,0.03
0.44,-0.4,-9.95,-0.01,0.0,0.02
0.44,-0.4,-9.95,-0.01,0.0,0.03
0.39,-0.38,-9.92,-0.01,0.01,0.03
0.47,-0.42,-10.05,-0.01,0.0,0.03
0.47,-0.44,-9.92,-0.01,0.0,0.02
0.47,-0.44,-9.92,-0.01,0.01,0.03
0.48,-0.41,-10.02,-0.01,0.0,0.02
0.39,-0.37,-10.06,-0.01,0.01,0.02
0.35,-0.42,-9.97,-0.01,0.01,0.03
0.35,-0.42,-9.97,-0.01,0.01,0.03
0.39,-0.43,-9.98,-0.01,0.0,0.03
0.53,-0.48,-9.96,-0.01,0.01,0.02
0.53,-0.48,-9.96,-0.01,0.01,0.03
0.48,-0.42,-10.08,-0.01,0.01,0.03
0.49,-0.42,-9.95,-0.01,0.02,0.03
0.48,-0.53,-9.95,-0.01,0.0,0.03
0.48,-0.53,-9.95,-0.02,0.01,0.02
0.44,-0.43,-9.96,-0.01,0.01,0.02
0.38,-0.34,-10.0,-0.01,0.01,0.03
0.38,-0.42,-10.01,-0.01,0.01,0.02
0.38,-0.42,-10.01,-0.01,0.02,0.02
0.36,-0.42,-9.95,-0.02,0.01,0.03
0.44,-0.36,-10.04,-0.0,0.01,0.03
0.44,-0.36,-10.04,-0.01,0.01,0.02
0.44,-0.41,-9.99,-0.02,0.01,0.02
0.42,-0.43,-9.98,-0.01,0.01,0.03
0.44,-0.41,-9.97,-0.01,0.01,0.03
0.44,-0.41,-9.97,-0.01,0.01,0.03
0.44,-0.46,-9.98,-0.0,0.01,0.03
0.44,-0.4,-9.98,-0.01,0.0,0.03
0.47,-0.45,-9.98,-0.01,0.01,0.03
0.47,-0.45,-9.98,-0.02,0.01,0.03
0.4,-0.39,-9.99,-0.01,0.01,0.02
0.45,-0.36,-9.96,-0.01,0.01,0.03
0.45,-0.36,-9.96,-0.02,0.01,0.02
0.46,-0.43,-10.0,-0.02,0.01,0.03
0.47,-0.44,-9.96,-0.02,0.0,0.03
0.44,-0.43,-10.02,-0.01,0.01,0.03
0.44,-0.43,-10.02,-0.02,0.01,0.03
0.48,-0.38,-9.93,-0.01,0.0,0.03
0.46,-0.46,-9.98,-0.01,0.01,0.03
0.47,-0.45,-9.98,-0.01,0.0,0.02
0.47,-0.45,-9.98,-0.01,0.01,0.02
0.43,-0.44,-9.89,-0.01,0.01,0.02
0.49,-0.44,-9.97,-0.01,0.01,0.02
0.49,-0.44,-9.97,-0.01,0.0,0.03
0.49,-0.4,-10.0,-0.01,0.01,0.03
0.43,-0.39,-10.02,-0.01,0.01,0.03
0.46,-0.38,-10.05,-0.01,0.01,0.03
0.46,-0.38,-10.05,-0.01,0.01,0.03
0.43,-0.42,-9.97,-0.01,0.01,0.03
0.49,-0.37,-9.88,-0.01,0.01,0.03
0.45,-0.5,-9.93,-0.01,0.01,0.03
0.45,-0.5,-9.93,-0.01,0.01,0.03
0.42,-0.43,-10.0,-0.01,0.01,0.03
0.46,-0.41,-10.0,-0.01,0.01,0.03
0.46,-0.41,-10.0,-0.01,0.01,0.02
0.47,-0.43,-9.94,-0.01,0.0,0.04
0.45,-0.42,-9.96,-0.01,0.01,0.02
0.39,-0.39,-9.96,-0.01,0.01,0.02
0.39,-0.39,-9.96,-0.02,0.0,0.03
0.41,-0.4,-10.02,-0.01,0.0,0.03
0.44,-0.37,-9.98,-0.02,0.01,0.03
0.44,-0.37,-9.98,-0.01,0.01,0.03
0.44,-0.38,-9.95,-0.02,0.0,0.02
0.48,-0.33,-9.99,-0.02,0.01,0.03
0.44,-0.4,-9.96,-0.01,0.01,0.02
0.44,-0.4,-9.96,-0.01,0.01,0.02
0.5,-0.42,-10.01,-0.01,0.0,0.03
0.45,-0.47,-10.04,-0.01,0.01,0.03
0.45,-0.4,-9.93,-0.0,0.01,0.02
0.45,-0.4,-9.93,-0.01,0.01,0.03
0.45,-0.41,-9.96,-0.01,0.01,0.03
0.44,-0.39,-9.93,-0.01,0.0,0.03
0.44,-0.39,-9.93,-0.01,0.01,0.03
0.41,-0.4,-9.89,-0.01,0.01,0.03
0.43,-0.44,-9.97,-0.01,0.01,0.03
0.43,-0.47,-10.02,-0.02,0.0,0.03
0.43,-0.47,-10.02,-0.01,0.01,0.03
0.52,-0.45,-9.9,-0.01,0.01,0.02
0.45,-0.38,-9.87,-0.01,0.01,0.03
0.49,-0.44,-9.92,-0.02,0.01,0.03
0.49,-0.44,-9.92,-0.01,0.0,0.03
0.51,-0.39,-9.98,-0.01,0.0,0.03
0.4,-0.35,-9.96,-0.01,0.01,0.03
0.4,-0.35,-9.96,-0.01,0.01,0.03
0.44,-0.38,-10.0,-0.01,0.01,0.03
0.43,-0.39,-10.05,-0.01,0.01,0.03
0.45,-0.4,-9.94,-0.01,0.01,0.02
0.45,-0.4,-9.94,-0.01,0.01,0.03
0.54,-0.4,-10.01,-0.01,0.01,0.03
0.55,-0.45,-10.0,-0.01,0.0,0.03
0.5,-0.44,-9.99,-0.01,0.01,0.03
0.5,-0.44,-9.99,-0.01,0.01,0.02
0.45,-0.41,-10.01,-0.01,0.01,0.03
0.4,-0.43,-9.97,-0.01,0.01,0.02
0.4,-0.43,-9.97,-0.01,0.01,0.03
0.45,-0.41,-9.89,-0.01,0.01,0.02
0.39,-0.42,-9.96,-0.01,0.01,0.03
0.45,-0.42,-9.97,-0.01,0.0,0.02
0.45,-0.42,-9.97,-0.01,0.0,0.02
0.45,-0.42,-10.02,-0.01,0.01,0.03
0.43,-0.44,-10.02,-0.01,0.01,0.03
0.46,-0.46,-10.04,-0.01,0.01,0.03
0.46,-0.46,-10.04,-0.01,0.0,0.03
0.46,-0.42,-9.93,-0.01,0.0,0.02
0.46,-0.43,-10.01,-0.01,0.01,0.03
0.46,-0.43,-10.01,-0.01,0.01,0.02
0.46,-0.46,-9.97,-0.01,0.0,0.02
0.46,-0.4,-9.96,-0.03,0.0,0.03
0.39,-0.35,-9.98,-0.02,0.01,0.02
0.39,-0.35,-9.98,-0.01,0.0,0.03
0.46,-0.43,-9.96,-0.01,0.0,0.03
0.43,-0.31,-10.02,-0.01,0.0,0.03
0.46,-0.45,-9.95,-0.02,0.01,0.02
0.46,-0.45,-9.95,-0.02,0.01,0.03
0.44,-0.42,-9.97,-0.02,0.01,0.03
0.44,-0.45,-10.02,-0.01,0.01,0.03
0.44,-0.45,-10.02,-0.01,0.01,0.03
0.5,-0.37,-10.04,-0.01,0.01,0.03
0.4,-0.39,-10.02,-0.01,0.01,0.03
0.48,-0.36,-10.0,-0.01,0.01,0.02
0.48,-0.36,-10.0,-0.01,-0.0,0.03
0.43,-0.43,-9.98,-0.0,0.01,0.03
0.39,-0.38,-10.01,-0.01,0.01,0.03
0.52,-0.42,-9.95,-0.02,0.01,0.02
0.52,-0.42,-9.95,-0.01,0.01,0.03
0.41,-0.47,-10.04,-0.01,0.01,0.03
0.44,-0.47,-9.93,-0.01,0.01,0.03
0.44,-0.47,-9.93,-0.01,0.01,0.02
0.47,-0.41,-9.96,-0.01,0.01,0.03
0.49,-0.39,-9.99,-0.01,0.01,0.03
0.48,-0.5,-10.07,-0.01,0.0,0.02
0.48,-0.5,-10.07,-0.01,0.01,0.03
0.47,-0.41,-9.96,-0.02,0.01,0.03
0.4,-0.45,-9.94,-0.01,0.0,0.03
0.41,-0.37,-10.03,-0.01,0.01,0.03
0.41,-0.37,-10.03,-0.01,0.01,0.03
0.49,-0.41,-9.92,-0.01,0.01,0.02
0.45,-0.37,-9.93,-0.02,0.01,0.02
0.45,-0.37,-9.93,-0.02,0.01,0.02
0.45,-0.37,-9.95,-0.01,0.01,0.03
0.46,-0.43,-10.0,-0.01,0.01,0.02
0.41,-0.39,-9.93,-0.01,0.0,0.03
0.41,-0.39,-9.93,-0.01,0.01,0.03
0.45,-0.38,-9.95,-0.01,0.01,0.03
0.44,-0.4,-9.94,-0.01,0.0,0.03
0.43,-0.37,-10.0,-0.01,0.01,0.02
0.43,-0.37,-10.0,-0.01,0.01,0.02
0.43,-0.38,-10.07,-0.01,0.0,0.03
0.39,-0.4,-10.05,-0.02,0.01,0.03
0.39,-0.4,-10.05,-0.01,0.01,0.03
0.47,-0.39,-9.97,-0.01,0.01,0.03
0.5,-0.41,-10.0,-0.01,0.01,0.03
0.43,-0.47,-9.95,-0.01,0.01,0.03
0.43,-0.47,-9.95,-0.01,0.0,0.02
0.39,-0.5,-10.0,-0.01,0.0,0.03
0.47,-0.4,-9.95,-0.01,0.0,0.03
0.41,-0.45,-9.95,-0.01,0.02,0.03
0.41,-0.45,-9.95,-0.01,0.01,0.03
0.41,-0.43,-9.94,-0.01,0.01,0.03
0.38,-0.47,-9.96,-0.01,0.0,0.03
0.38,-0.47,-9.96,-0.01,0.01,0.02
0.47,-0.4,-9.97,-0.01,0.0,0.03
0.47,-0.39,-9.91,-0.02,0.01,0.03
0.44,-0.41,-9.94,-0.01,0.01,0.03
0.44,-0.41,-9.94,-0.02,0.0,0.02
0.41,-0.39,-9.94,-0.0,0.0,0.02
0.46,-0.46,-9.98,-0.01,0.01,0.03
0.42,-0.43,-10.01,-0.01,0.01,0.03
0.42,-0.43,-10.01,-0.01,0.01,0.02
0.45,-0.38,-9.99,-0.01,0.01,0.02
0.46,-0.43,-10.02,-0.01,0.01,0.03
0.46,-0.43,-10.02,-0.01,0.01,0.03
0.41,-0.45,-9.99,-0.01,0.0,0.03
0.46,-0.47,-9.97,-0.02,0.01,0.03
0.47,-0.36,-10.0,-0.01,0.01,0.02
0.47,-0.36,-10.0,-0.01,0.01,0.03
0.44,-0.39,-9.94,-0.01,0.01,0.03
0.41,-0.4,-10.03,-0.01,0.01,0.02
0.4,-0.39,-9.97,-0.01,0.0,0.03
0.4,-0.39,-9.97,-0.01,0.0,0.02
0.41,-0.4,-9.99,-0.01,0.01,0.03
0.45,-0.42,-10.01,-0.01,0.01,0.03
0.45,-0.42,-10.01,-0.01,0.0,0.03
0.46,-0.43,-10.06,-0.01,0.01,0.03
0.44,-0.45,-10.0,-0.02,0.01,0.02
0.42,-0.41,-10.04,-0.01,0.01,0.03
0.42,-0.41,-10.04,-0.01,0.01,0.03
0.48,-0.43,-9.96,-0.01,0.01,0.03
0.42,-0.44,-9.98,-0.01,0.01,0.03
0.42,-0.4,-10.01,-0.01,0.01,0.03
0.42,-0.4,-10.01,-0.01,0.01,0.03
0.4,-0.42,-10.02,-0.01,0.01,0.02
0.44,-0.46,-9.98,-0.01,0.01,0.02
0.44,-0.46,-9.98,-0.02,0.01,0.02
0.46,-0.41,-10.02,-0.01,0.02,0.02
0.46,-0.37,-9.94,-0.01,0.01,0.04
0.49,-0.42,-9.98,-0.01,0.01,0.03
0.49,-0.42,-9.98,-0.01,0.01,0.03
0.43,-0.41,-10.02,-0.01,0.0,0.02
0.44,-0.39,-10.0,-0.01,0.01,0.03
0.4,-0.43,-10.0,-0.01,0.0,0.02
0.4,-0.43,-10.0,-0.01,0.01,0.03
0.37,-0.38,-10.03,-0.01,0.01,0.02
0.48,-0.43,-9.93,-0.01,0.01,0.02
0.48,-0.43,-9.93,-0.01,0.01,0.03
0.46,-0.38,-10.01,-0.01,0.01,0.03
0.45,-0.44,-9.92,-0.02,0.01,0.03
0.4,-0.45,-9.98,-0.01,0.0,0.03
0.4,-0.45,-9.98,-0.01,0.0,0.03
0.4,-0.37,-9.95,-0.01,0.01,0.02
0.48,-0.37,-10.0,-0.02,0.01,0.03
0.47,-0.41,-10.01,-0.01,0.01,0.02
0.47,-0.41,-10.01,-0.01,0.01,0.03
0.44,-0.38,-9.9,-0.01,0.01,0.03
0.4,-0.4,-9.94,-0.01,0.01,0.03
0.4,-0.4,-9.94,-0.02,0.01,0.03
0.45,-0.4,-9.94,-0.01,0.01,0.02
0.4,-0.43,-10.0,-0.02,0.01,0.03
0.44,-0.4,-10.05,-0.01,0.01,0.02
0.44,-0.4,-10.05,-0.01,0.01,0.02
0.46,-0.38,-9.98,-0.02,0.01,0.03
0.49,-0.4,-9.99,-0.02,0.0,0.03
0.46,-0.41,-9.95,-0.01,0.01,0.03
0.46,-0.41,-9.95,-0.01,0.01,0.03
0.46,-0.41,-9.97,-0.0,0.0,0.02
0.46,-0.43,-9.98,-0.01,0.01,0.03
0.46,-0.43,-9.98,-0.01,-0.0,0.02
0.45,-0.47,-10.05,-0.01,0.0,0.02
0.42,-0.39,-9.95,-0.01,0.01,0.02
0.42,-0.42,-9.99,-0.01,0.0,0.03
0.42,-0.42,-9.99,-0.01,0.02,0.02
0.42,-0.38,-9.94,-0.01,0.01,0.02
0.47,-0.47,-9.94,-0.01,0.01,0.02
0.47,-0.41,-10.01,-0.01,0.01,0.02
0.47,-0.41,-10.01,-0.01,0.01,0.03
0.49,-0.39,-9.97,-0.01,0.01,0.03
0.48,-0.44,-10.07,-0.01,0.0,0.03
0.48,-0.44,-10.07,-0.01,0.01,0.02
0.39,-0.46,-9.95,-0.01,0.01,0.02
0.42,-0.41,-10.01,-0.01,0.01,0.02
0.44,-0.35,-9.96,-0.01,0.01,0.02
0.44,-0.35,-9.96,-0.02,-0.0,0.03
0.47,-0.39,-10.02,-0.02,0.0,0.02
0.43,-0.45,-9.95,-0.01,0.0,0.03
0.44,-0.41,-9.96,-0.01,0.01,0.03
0.44,-0.41,-9.96,-0.01,0.01,0.02
0.42,-0.4,-9.97,-0.02,0.0,0.03
0.42,-0.4,-9.96,-0.01,0.01,0.02
0.41,-0.46,-9.99,-0.02,0.01,0.04
0.41,-0.46,-9.99,-0.01,0.01,0.03
0.41,-0.41,-9.94,-0.01,0.01,0.03
0.45,-0.45,-9.91,-0.01,0.01,0.03
0.45,-0.45,-9.91,-0.01,0.01,0.03
0.47,-0.43,-9.88,-0.02,0.0,0.03
0.51,-0.44,-9.97,-0.01,0.01,0.03
0.48,-0.38,-10.05,-0.01,0.01,0.03
0.48,-0.38,-10.05,-0.01,0.01,0.02
0.38,-0.45,-9.97,-0.01,0.0,0.03
0.39,-0.4,-9.95,-0.01,0.01,0.03
0.37,-0.39,-10.08,-0.0,0.0,0.02
0.37,-0.39,-10.08,-0.01,0.01,0.02
0.45,-0.4,-10.01,-0.01,0.0,0.03
0.47,-0.41,-10.03,-0.01,0.01,0.03
0.47,-0.41,-10.03,-0.01,0.0,0.02
0.45,-0.41,-10.02,-0.01,0.0,0.02
0.38,-0.38,-10.0,-0.01,0.01,0.02
0.43,-0.39,-9.97,-0.01,0.0,0.03
0.43,-0.39,-9.97,-0.02,0.01,0.03
0.42,-0.38,-9.97,-0.01,0.01,0.03
0.39,-0.43,-9.95,-0.01,0.0,0.03
0.48,-0.42,-10.01,-0.01,0.0,0.03
0.48,-0.42,-10.01,-0.01,0.02,0.03
0.48,-0.41,-10.02,-0.01,0.01,0.03
0.41,-0.39,-9.92,-0.0,0.01,0.03
0.41,-0.39,-9.92,-0.02,0.01,0.03
0.39,-0.43,-10.0,-0.01,0.0,0.03
0.42,-0.46,-10.03,-0.01,0.01,0.02
0.46,-0.4,-9.96,-0.01,0.01,0.01
0.46,-0.4,-9.96,-0.01,0.0,0.03
0.43,-0.35,-10.02,-0.01,0.0,0.02
0.42,-0.39,-10.04,-0.01,0.0,0.03
0.43,-0.45,-9.97,-0.02,0.0,0.02
0.43,-0.45,-9.97,-0.01,0.02,0.03
0.37,-0.43,-10.02,-0.01,0.01,0.03
0.36,-0.46,-9.95,-0.01,0.01,0.02
0.36,-0.46,-9.95,-0.01,0.01,0.03
0.43,-0.42,-9.97,-0.02,0.01,0.02
0.4,-0.42,-10.03,-0.01,0.01,0.02
0.46,-0.47,-10.03,-0.01,0.02,0.03
0.46,-0.47,-10.03,-0.01,0.01,0.03
0.49,-0.41,-9.98,-0.01,0.01,0.03
0.37,-0.41,-10.05,-0.01,0.01,0.03
0.44,-0.38,-9.97,-0.02,0.0,0.02
0.44,-0.38,-9.97,-0.01,0.01,0.02
0.4,-0.45,-9.96,-0.02,0.01,0.03
0.46,-0.37,-10.02,-0.01,0.01,0.03
0.46,-0.37,-10.02,-0.01,0.02,0.03
0.47,-0.44,-10.05,-0.01,0.01,0.03
0.42,-0.37,-10.06,-0.01,0.01,0.02
0.44,-0.46,-9.98,-0.01,0.01,0.03
0.44,-0.46,-9.98,-0.01,0.01,0.02
0.49,-0.44,-10.0,-0.01,0.01,0.02
0.48,-0.44,-10.0,-0.01,0.0,0.03
0.43,-0.44,-10.02,-0.01,0.01,0.02
0.43,-0.44,-10.02,-0.02,0.01,0.03
0.42,-0.41,-10.07,-0.02,0.01,0.03
0.47,-0.38,-10.0,-0.01,0.01,0.03
0.47,-0.38,-10.0,-0.01,0.01,0.03
0.43,-0.39,-10.0,-0.02,0.01,0.03
0.43,-0.37,-10.01,-0.0,0.01,0.03
0.39,-0.44,-9.93,-0.01,0.01,0.02
0.39,-0.44,-9.93,-0.01,0.0,0.03
0.4,-0.39,-9.98,-0.01,0.01,0.03
0.48,-0.4,-9.95,-0.01,0.01,0.03
0.43,-0.39,-9.96,-0.01,0.01,0.03
0.43,-0.39,-9.96,-0.01,0.01,0.03
0.45,-0.43,-10.03,-0.01,0.0,0.03
0.39,-0.42,-10.01,-0.0,0.01,0.02
0.39,-0.42,-10.01,-0.01,0.01,0.03
0.44,-0.48,-9.95,-0.02,0.01,0.03
0.47,-0.46,-9.93,-0.01,0.0,0.02
0.38,-0.48,-10.02,-0.01,0.0,0.02
0.38,-0.48,-10.02,-0.01,0.0,0.03
0.37,-0.37,-10.01,-0.0,0.01,0.03
0.36,-0.44,-10.01,-0.01,0.01,0.03
0.43,-0.42,-10.0,-0.01,0.01,0.03
0.43,-0.42,-10.0,-0.01,0.01,0.02
0.5,-0.4,-9.99,-0.01,0.01,0.03
0.4,-0.4,-10.03,-0.01,0.01,0.03
0.4,-0.4,-10.03,-0.01,0.01,0.03
0.45,-0.42,-9.99,-0.01,0.0,0.02
0.39,-0.43,-10.01,-0.01,0.01,0.03
0.43,-0.37,-10.07,-0.01,0.01,0.02
0.43,-0.37,-10.07,-0.02,0.01,0.02
0.41,-0.43,-10.0,-0.01,0.01,0.02
0.48,-0.4,-9.91,-0.01,0.01,0.03
0.45,-0.44,-9.98,-0.01,0.01,0.03
0.45,-0.44,-9.98,-0.01,0.01,0.03
0.43,-0.44,-10.01,-0.01,0.01,0.03
0.49,-0.44,-9.88,-0.02,0.01,0.02
0.49,-0.44,-9.88,0.0,0.01,0.03
0.47,-0.41,-10.0,-0.01,0.0,0.03
0.45,-0.49,-9.93,-0.01,0.0,0.03
0.47,-0.41,-10.01,-0.01,0.01,0.02
0.47,-0.41,-10.01,-0.0,0.01,0.02
0.42,-0.41,-9.96,-0.02,0.01,0.03
0.51,-0.48,-9.98,-0.01,0.0,0.03
0.41,-0.4,-10.06,-0.01,0.01,0.02
0.41,-0.4,-10.06,-0.01,0.01,0.03
0.42,-0.44,-9.99,-0.01,0.0,0.03
0.41,-0.45,-9.95,-0.02,0.0,0.03
0.41,-0.45,-9.95,-0.01,0.0,0.03
0.4,-0.41,-9.97,-0.01,0.01,0.03
0.55,-0.43,-10.03,-0.01,0.01,0.03
0.43,-0.41,-10.04,-0.01,0.01,0.03
0.43,-0.41,-10.04,-0.01,0.01,0.03
0.41,-0.37,-10.06,-0.01,0.01,0.02
0.44,-0.36,-10.03,-0.01,0.0,0.03
0.47,-0.44,-9.98,-0.01,0.0,0.03
0.47,-0.44,-9.98,-0.02,0.01,0.03
0.4,-0.45,-9.99,-0.01,0.01,0.03
0.43,-0.49,-10.01,-0.01,0.01,0.03
0.43,-0.49,-10.01,-0.01,0.01,0.02
0.44,-0.48,-9.98,-0.01,0.0,0.02
0.41,-0.42,-9.97,-0.02,0.01,0.03
0.46,-0.46,-9.98,-0.01,0.01,0.02
0.46,-0.46,-9.98,-0.01,0.0,0.03
0.48,-0.37,-9.94,-0.01,0.0,0.03
0.44,-0.41,-10.07,-0.01,0.01,0.03
0.41,-0.41,-9.97,-0.01,0.01,0.03
0.41,-0.41,-9.97,-0.01,0.01,0.02
0.44,-0.47,-10.03,-0.01,0.01,0.03
0.45,-0.42,-10.01,-0.02,0.01,0.03
0.45,-0.42,-10.01,-0.01,0.01,0.03
0.47,-0.46,-9.99,-0.01,0.01,0.03
0.42,-0.38,-9.98,-0.01,0.01,0.03
0.39,-0.48,-9.97,-0.01,0.01,0.02
0.39,-0.48,-9.97,-0.01,0.01,0.03
0.44,-0.4,-9.95,-0.02,0.01,0.02
0.41,-0.48,-9.99,-0.01,0.0,0.03
0.43,-0.44,-10.02,-0.01,0.01,0.02
0.43,-0.44,-10.02,-0.01,0.0,0.03
0.39,-0.39,-9.98,-0.01,0.01,0.03
0.45,-0.47,-9.98,-0.02,0.01,0.02
0.45,-0.47,-9.98,-0.01,0.0,0.03
0.47,-0.41,-10.0,-0.01,0.01,0.02
0.43,-0.44,-10.07,-0.01,0.01,0.03
0.43,-0.44,-10.06,-0.01,0.01,0.03
0.43,-0.44,-10.06,-0.01,0.0,0.03
0.37,-0.38,-10.0,-0.02,0.0,0.03
0.39,-0.4,-10.02,-0.01,0.01,0.03
0.47,-0.43,-10.07,-0.01,0.01,0.03
0.47,-0.43,-10.07,-0.01,0.01,0.02
0.47,-0.4,-9.98,-0.01,0.0,0.03
0.47,-0.4,-9.96,-0.01,0.01,0.02
0.47,-0.4,-9.96,-0.01,0.01,0.03
0.38,-0.36,-10.07,-0.01,0.01,0.01
0.44,-0.44,-9.95,-0.01,0.01,0.02
0.44,-0.4,-9.9,-0.02,0.01,0.02
0.44,-0.4,-9.9,-0.01,0.01,0.03
0.5,-0.42,-9.98,-0.02,0.0,0.02
0.47,-0.39,-9.98,-0.02,0.01,0.03
0.43,-0.36,-10.02,-0.01,0.01,0.03
0.43,-0.36,-10.02,-0.01,0.02,0.02
0.44,-0.4,-10.04,-0.01,0.0,0.03
0.44,-0.47,-10.0,-0.01,0.01,0.03
0.44,-0.47,-10.0,-0.01,0.01,0.03
0.39,-0.41,-10.0,-0.02,0.01,0.03
0.46,-0.39,-9.98,-0.01,0.0,0.03
0.52,-0.46,-9.99,-0.01,0.02,0.03
0.52,-0.46,-9.99,-0.01,0.01,0.03
0.43,-0.43,-10.02,-0.01,0.01,0.03
0.38,-0.41,-9.98,-0.01,0.01,0.03
0.44,-0.44,-9.97,-0.02,0.01,0.02
0.44,-0.44,-9.97,-0.01,0.0,0.02
0.37,-0.4,-10.01,-0.01,0.01,0.03
0.42,-0.41,-9.98,-0.01,0.01,0.02
0.42,-0.41,-9.98,-0.01,0.01,0.03
0.44,-0.44,-9.99,-0.01,0.01,0.02
0.47,-0.46,-9.93,-0.01,0.01,0.02
0.45,-0.38,-10.03,-0.0,0.01,0.02
0.45,-0.38,-10.03,-0.01,0.0,0.02
0.44,-0.44,-10.1,-0.01,0.01,0.03
0.39,-0.39,-9.93,-0.0,0.0,0.03
0.44,-0.39,-9.98,-0.01,0.01,0.02
0.44,-0.39,-9.98,-0.01,0.01,0.02
0.51,-0.48,-9.93,-0.02,0.0,0.03
0.45,-0.41,-9.95,-0.01,0.0,0.03
0.45,-0.41,-9.95,-0.02,0.01,0.03
0.43,-0.38,-9.99,-0.01,0.01,0.03
0.5,-0.44,-10.01,-0.01,0.01,0.02
0.48,-0.4,-9.91,-0.02,0.01,0.03
0.48,-0.4,-9.91,-0.02,0.01,0.03
0.4,-0.42,-10.03,-0.01,0.01,0.02
0.45,-0.4,-10.02,-0.01,0.0,0.03
0.43,-0.39,-9.91,-0.01,0.01,0.03
0.43,-0.39,-9.91,-0.02,0.01,0.03
0.48,-0.43,-10.02,-0.02,0.01,0.02
0.44,-0.44,-10.03,-0.01,0.0,0.03
0.44,-0.44,-10.03,-0.01,0.01,0.03
0.44,-0.43,-10.01,-0.0,-0.0,0.03
0.47,-0.43,-9.96,-0.02,0.0,0.03
0.47,-0.38,-9.95,-0.01,0.0,0.03
0.47,-0.38,-9.95,-0.01,0.01,0.03
0.42,-0.39,-9.93,-0.01,-0.0,0.02
0.41,-0.45,-9.96,-0.02,0.01,0.03
0.41,-0.39,-9.98,-0.01,0.01,0.03
0.41,-0.39,-9.98,-0.01,0.01,0.03
0.49,-0.42,-9.94,-0.01,0.01,0.02
0.48,-0.49,-10.02,-0.01,0.01,0.03
0.48,-0.49,-10.02,-0.01,0.02,0.03
0.48,-0.42,-9.98,-0.01,0.01,0.03
0.44,-0.41,-10.0,-0.02,0.0,0.03
0.39,-0.44,-10.01,-0.01,0.01,0.03
0.39,-0.44,-10.01,-0.01,0.0,0.02
0.44,-0.43,-10.0,-0.01,0.01,0.03
0.5,-0.41,-9.98,-0.01,0.01,0.02
0.38,-0.39,-9.95,-0.02,0.01,0.03
0.38,-0.39,-9.95,-0.02,0.0,0.03
0.43,-0.41,-10.02,-0.01,0.0,0.03
0.47,-0.39,-9.98,-0.01,0.01,0.03
0.47,-0.39,-9.98,-0.01,0.01,0.02
0.44,-0.4,-9.97,-0.01,-0.0,0.03
0.53,-0.51,-10.02,-0.02,0.01,0.03
0.45,-0.45,-10.05,-0.02,0.01,0.03
0.45,-0.45,-10.05,-0.01,0.01,0.02
0.46,-0.43,-9.98,-0.01,0.0,0.03
0.44,-0.5,-9.96,-0.01,0.01,0.02
0.42,-0.45,-10.05,-0.01,0.0,0.03
0.42,-0.45,-10.05,-0.01,0.02,0.03
0.47,-0.37,-10.04,-0.01,0.01,0.02
0.45,-0.49,-9.98,-0.02,0.01,0.03
0.45,-0.49,-9.98,-0.02,0.01,0.02
0.4,-0.47,-10.07,-0.02,0.01,0.03
0.38,-0.39,-10.03,-0.01,0.0,0.03
0.49,-0.39,-9.97,-0.01,0.01,0.03
0.49,-0.39,-9.97,-0.01,0.0,0.03
0.38,-0.41,-10.02,-0.01,0.01,0.02
0.51,-0.42,-9.98,-0.01,0.0,0.03
0.39,-0.42,-9.94,-0.01,0.01,0.03
0.39,-0.42,-9.94,-0.01,0.01,0.03
0.44,-0.44,-10.07,-0.01,0.0,0.02
0.39,-0.42,-10.02,-0.02,0.01,0.03
0.44,-0.41,-10.07,-0.01,0.02,0.03
0.44,-0.41,-10.07,-0.02,0.01,0.03
0.44,-0.42,-10.01,-0.01,0.01,0.03
0.4,-0.4,-10.0,-0.01,0.0,0.02
0.4,-0.4,-10.0,-0.01,-0.0,0.02
0.45,-0.43,-9.95,-0.01,0.01,0.02
0.44,-0.44,-9.88,-0.01,0.0,0.03
0.43,-0.41,-9.93,-0.02,0.0,0.03
0.43,-0.41,-9.93,-0.01,0.01,0.02
0.44,-0.48,-9.93,-0.01,0.01,0.03
0.41,-0.42,-10.02,-0.01,0.01,0.02
0.42,-0.45,-10.02,-0.01,0.01,0.02
0.42,-0.45,-10.02,-0.01,0.01,0.03
0.47,-0.43,-9.91,-0.02,0.01,0.03
0.47,-0.41,-9.96,-0.01,0.01,0.02
0.43,-0.44,-9.99,-0.01,0.01,0.03
0.43,-0.44,-9.99,-0.01,0.01,0.03
0.42,-0.42,-10.02,-0.01,0.01,0.03
0.47,-0.39,-9.99,-0.01,0.01,0.03
0.47,-0.39,-9.99,-0.01,0.01,0.02
0.41,-0.44,-10.13,-0.02,0.01,0.02
0.46,-0.41,-10.07,-0.01,0.01,0.03
0.44,-0.39,-10.03,-0.01,0.0,0.03
0.44,-0.39,-10.03,-0.01,0.01,0.02
0.4,-0.48,-10.07,-0.01,0.02,0.03
0.42,-0.39,-10.02,-0.01,0.01,0.02
0.47,-0.43,-9.97,-0.01,0.01,0.03
0.47,-0.43,-9.97,-0.01,0.01,0.03
0.48,-0.39,-9.94,-0.01,0.01,0.03
0.4,-0.45,-10.05,-0.01,0.01,0.03
0.4,-0.45,-10.05,-0.01,0.01,0.03
0.41,-0.41,-9.97,-0.01,0.01,0.03
0.39,-0.42,-10.04,-0.01,0.0,0.04
0.41,-0.38,-9.95,-0.01,0.01,0.03
0.41,-0.38,-9.95,-0.01,0.01,0.03
0.4,-0.39,-9.97,-0.0,0.01,0.03
0.47,-0.41,-9.95,-0.01,-0.0,0.02
0.45,-0.47,-9.99,-0.01,0.0,0.03
0.45,-0.47,-9.99,-0.01,0.01,0.02
0.39,-0.37,-10.05,-0.01,0.01,0.03
0.48,-0.44,-9.95,-0.01,0.01,0.03
0.48,-0.44,-9.95,-0.01,0.0,0.03
0.41,-0.4,-9.98,-0.01,0.01,0.02
0.44,-0.43,-9.98,-0.01,0.01,0.02
0.46,-0.42,-10.05,-0.01,0.01,0.03
0.46,-0.42,-10.05,-0.01,0.01,0.03
0.39,-0.43,-10.03,-0.01,0.0,0.03
0.46,-0.34,-10.03,-0.02,0.01,0.03
0.41,-0.44,-10.05,-0.01,0.01,0.03
0.41,-0.44,-10.05,-0.01,0.01,0.02
0.44,-0.46,-9.94,-0.01,0.0,0.03
0.42,-0.36,-9.95,-0.02,0.01,0.03
0.42,-0.36,-9.95,-0.01,0.01,0.03
0.38,-0.39,-10.0,-0.02,0.01,0.03
0.47,-0.46,-10.01,-0.01,0.01,0.03
0.38,-0.42,-9.98,-0.01,0.0,0.03
0.38,-0.42,-9.98,-0.01,0.01,0.03
0.5,-0.45,-9.96,-0.01,0.01,0.03
0.37,-0.43,-9.95,-0.01,0.01,0.03
0.41,-0.43,-9.98,-0.02,0.01,0.03
0.41,-0.43,-9.98,-0.01,0.01,0.02
0.45,-0.4,-10.03,-0.01,0.01,0.02
0.45,-0.41,-10.06,-0.01,0.01,0.03
0.37,-0.44,-9.94,-0.01,0.01,0.03
0.37,-0.44,-9.94,-0.02,0.01,0.02
0.47,-0.46,-10.04,-0.01,0.01,0.03
0.49,-0.42,-10.07,-0.01,0.0,0.02
0.49,-0.42,-10.07,-0.01,0.01,0.03
0.48,-0.46,-9.98,-0.01,0.01,0.03
0.4,-0.43,-9.95,-0.01,0.01,0.02
0.42,-0.44,-9.94,-0.01,0.01,0.03
0.42,-0.44,-9.94,-0.01,0.02,0.02
0.39,-0.46,-10.01,-0.01,0.0,0.03
0.39,-0.43,-10.0,-0.02,0.01,0.02
0.44,-0.39,-10.05,-0.01,0.0,0.03
0.44,-0.39,-10.05,-0.01,0.0,0.04
0.41,-0.42,-9.94,-0.02,0.0,0.03
0.42,-0.37,-10.0,-0.01,0.01,0.03
0.42,-0.37,-10.0,-0.01,0.01,0.02
0.44,-0.38,-10.01,-0.01,0.01,0.03
0.45,-0.36,-10.03,-0.01,0.01,0.03
0.36,-0.46,-9.99,-0.02,0.01,0.02
0.36,-0.46,-9.99,-0.01,0.0,0.02
0.5,-0.4,-10.02,-0.01,0.01,0.02
0.44,-0.4,-10.01,-0.01,0.01,0.03
0.41,-0.49,-9.97,-0.01,0.0,0.03
0.41,-0.49,-9.97,-0.02,0.01,0.03
0.35,-0.41,-10.04,-0.0,0.0,0.03
0.43,-0.4,-10.07,-0.01,0.01,0.02
0.43,-0.4,-10.07,-0.0,0.01,0.03
0.39,-0.43,-10.0,-0.01,0.01,0.03
0.45,-0.45,-9.99,-0.01,0.0,0.03
0.49,-0.4,-9.95,-0.01,0.01,0.04
0.49,-0.4,-9.95,-0.01,0.01,0.03
0.44,-0.46,-10.13,-0.01,0.01,0.02
0.46,-0.44,-10.05,-0.01,0.01,0.03
0.46,-0.44,-10.05,-0.01,0.01,0.03
0.5,-0.34,-9.96,-0.0,0.01,0.03
0.4,-0.42,-9.93,-0.01,0.01,0.03
0.47,-0.42,-9.93,-0.01,0.01,0.03
0.47,-0.42,-9.93,-0.01,0.01,0.02
0.39,-0.47,-9.94,-0.02,0.01,0.02
0.47,-0.48,-9.92,-0.02,0.0,0.03
0.48,-0.48,-10.05,-0.01,0.01,0.03
0.48,-0.48,-10.05,-0.01,0.0,0.03
0.46,-0.4,-10.01,-0.02,0.0,0.03
0.44,-0.46,-9.96,-0.01,0.01,0.02
0.44,-0.46,-9.96,-0.01,0.0,0.03
0.45,-0.42,-9.98,-0.01,0.02,0.03
0.42,-0.4,-9.99,-0.01,0.01,0.03
0.43,-0.43,-10.09,-0.02,0.01,0.03
0.43,-0.43,-10.09,-0.01,0.0,0.03
0.43,-0.4,-10.01,-0.01,0.01,0.03
0.42,-0.35,-10.02,-0.01,0.01,0.03
0.41,-0.4,-10.03,-0.01,0.0,0.02
0.41,-0.4,-10.03,-0.01,0.0,0.03
0.49,-0.39,-10.02,-0.01,0.0,0.02
0.39,-0.35,-10.02,-0.01,0.0,0.03
0.37,-0.42,-9.95,-0.02,0.0,0.03
0.37,-0.42,-9.95,-0.0,0.01,0.03
0.48,-0.42,-9.98,-0.01,0.01,0.02
0.43,-0.39,-9.98,-0.01,0.0,0.03
0.43,-0.39,-9.98,-0.01,0.01,0.03
0.4,-0.43,-9.95,-0.01,0.01,0.03
0.42,-0.41,-10.0,-0.02,0.0,0.03
0.39,-0.42,-10.05,-0.02,0.0,0.03
0.39,-0.42,-10.05,-0.01,0.0,0.03
0.45,-0.39,-10.01,-0.01,0.01,0.02
0.44,-0.42,-9.98,-0.01,0.01,0.03
0.47,-0.39,-10.07,-0.01,0.0,0.03
0.47,-0.39,-10.07,-0.01,0.01,0.02
0.43,-0.45,-10.07,-0.02,0.01,0.03
0.38,-0.38,-9.95,-0.01,0.0,0.03
0.38,-0.38,-9.95,-0.01,0.0,0.03
0.41,-0.44,-9.98,-0.01,0.0,0.03
0.46,-0.44,-9.98,-0.01,0.0,0.03
0.37,-0.43,-9.96,-0.01,0.01,0.03
0.37,-0.43,-9.96,-0.01,0.01,0.02
0.44,-0.43,-9.93,-0.01,0.01,0.03
0.4,-0.37,-10.05,-0.01,0.02,0.03
0.46,-0.39,-9.98,-0.01,0.01,0.03
0.46,-0.39,-9.98,-0.01,0.0,0.03
0.47,-0.4,-9.96,-0.01,0.01,0.02
0.49,-0.42,-9.97,-0.01,0.0,0.03
0.49,-0.42,-9.97,-0.01,0.01,0.03
0.43,-0.46,-10.04,-0.02,0.01,0.03
0.46,-0.44,-9.93,-0.01,0.0,0.02
0.4,-0.43,-9.98,-0.01,0.01,0.02
0.4,-0.43,-9.98,-0.01,0.0,0.03
0.41,-0.41,-9.95,-0.01,0.01,0.02
0.41,-0.44,-9.98,-0.02,0.01,0.02
0.44,-0.42,-9.96,-0.02,0.01,0.03
0.44,-0.42,-9.96,-0.01,0.01,0.02
0.37,-0.39,-10.04,-0.01,0.01,0.03
0.49,-0.47,-10.01,-0.01,0.01,0.03
0.49,-0.47,-10.01,-0.01,0.01,0.03
0.37,-0.38,-9.97,-0.01,0.01,0.02
0.42,-0.37,-9.98,-0.02,0.01,0.03
0.38,-0.43,-10.0,-0.01,0.01,0.03
0.38,-0.43,-10.0,-0.01,0.01,0.03
0.42,-0.47,-9.96,-0.01,0.0,0.02
0.44,-0.41,-9.96,-0.01,0.01,0.03
0.41,-0.38,-10.01,-0.01,0.01,0.03
0.41,-0.38,-10.01,-0.0,0.0,0.02
0.44,-0.37,-9.99,-0.01,0.01,0.03
0.43,-0.45,-10.03,-0.01,0.01,0.02
0.43,-0.45,-10.03,-0.01,0.02,0.03
0.47,-0.43,-10.02,-0.02,0.01,0.02
0.46,-0.43,-9.96,-0.01,0.01,0.03
0.45,-0.34,-10.03,-0.01,0.01,0.03
0.45,-0.34,-10.03,-0.02,0.01,0.03
0.43,-0.39,-10.02,-0.01,0.01,0.03
0.48,-0.41,-9.99,-0.01,0.01,0.03
0.44,-0.41,-9.96,-0.01,0.01,0.03
0.44,-0.41,-9.96,-0.01,0.01,0.02
0.39,-0.41,-9.99,-0.01,0.0,0.03
0.41,-0.45,-9.94,-0.01,0.01,0.03
0.41,-0.45,-9.94,-0.02,0.01,0.03
0.42,-0.37,-10.03,-0.01,0.0,0.03
0.47,-0.47,-10.05,-0.02,0.01,0.03
0.44,-0.41,-10.0,-0.01,0.0,0.02
0.44,-0.41,-10.0,-0.01,0.0,0.02
0.48,-0.44,-10.03,-0.02,0.01,0.03
0.46,-0.38,-9.99,-0.01,0.01,0.03
0.44,-0.39,-10.0,-0.01,0.01,0.03
0.44,-0.39,-10.0,-0.01,0.0,0.02
0.44,-0.44,-9.98,-0.01,0.01,0.02
0.44,-0.46,-10.01,-0.01,0.01,0.02
0.44,-0.46,-10.01,-0.01,0.01,0.03
0.44,-0.39,-10.03,-0.01,0.01,0.02
0.42,-0.4,-10.07,-0.01,0.01,0.02
0.48,-0.41,-9.97,-0.01,0.0,0.03
0.48,-0.41,-9.97,-0.01,0.0,0.03
0.42,-0.45,-9.99,-0.01,0.01,0.03
0.42,-0.45,-10.04,-0.01,0.01,0.02
0.46,-0.41,-10.01,-0.01,0.01,0.02
0.46,-0.41,-10.01,-0.01,0.01,0.03
0.43,-0.46,-10.0,-0.01,0.01,0.03
0.42,-0.44,-10.01,-0.02,0.01,0.03
0.42,-0.44,-10.01,-0.01,0.0,0.02
0.39,-0.37,-10.01,-0.01,0.01,0.03
0.46,-0.47,-9.93,-0.01,0.01,0.02
0.49,-0.49,-9.98,-0.01,0.01,0.03
0.49,-0.49,-9.98,-0.01,0.0,0.02
0.42,-0.43,-9.97,-0.01,0.0,0.03
0.41,-0.46,-9.95,-0.01,0.01,0.03
0.41,-0.46,-9.95,-0.02,0.01,0.02
0.47,-0.41,-10.01,-0.01,0.01,0.03
0.46,-0.44,-9.94,-0.01,0.0,0.03
0.4,-0.44,-9.99,-0.01,0.01,0.03
0.4,-0.44,-9.99,-0.01,0.01,0.03
0.41,-0.42,-9.98,-0.02,0.01,0.03
0.45,-0.46,-9.99,-0.01,0.01,0.02
0.45,-0.44,-9.95,-0.0,0.01,0.02
0.45,-0.44,-9.95,-0.01,0.0,0.03
0.43,-0.45,-9.96,-0.02,0.01,0.03
0.35,-0.41,-9.97,-0.01,0.0,0.02
0.43,-0.41,-10.01,-0.01,0.01,0.03
0.43,-0.41,-10.01,-0.01,0.0,0.03
0.44,-0.39,-9.95,-0.01,0.01,0.03
0.46,-0.35,-9.95,-0.02,0.01,0.03
0.46,-0.35,-9.95,-0.01,0.0,0.03
0.41,-0.42,-10.02,-0.01,0.01,0.02
0.45,-0.43,-9.96,-0.02,0.01,0.02
0.5,-0.49,-9.96,-0.01,0.01,0.02
0.5,-0.49,-9.96,-0.02,0.02,0.03
0.47,-0.43,-10.07,-0.0,-0.0,0.02
0.45,-0.44,-9.98,-0.01,0.01,0.02
0.53,-0.38,-9.96,-0.01,0.01,0.03
0.53,-0.38,-9.96,-0.01,0.0,0.02
0.41,-0.42,-10.06,-0.01,0.01,0.02
0.42,-0.38,-9.96,-0.02,0.01,0.03
0.42,-0.38,-9.96,-0.01,0.0,0.03
0.44,-0.46,-10.03,-0.01,0.01,0.03
0.43,-0.43,-10.05,-0.01,0.01,0.03
0.39,-0.4,-10.02,-0.01,0.0,0.03
0.39,-0.4,-10.02,-0.01,0.01,0.03
0.39,-0.36,-9.98,-0.01,0.02,0.03
0.43,-0.43,-9.9,-0.01,0.01,0.03
0.51,-0.4,-10.04,-0.01,0.0,0.03
0.51,-0.4,-10.04,-0.01,0.01,0.02
0.42,-0.46,-9.92,-0.01,0.0,0.02
0.38,-0.45,-9.98,-0.01,0.01,0.03
0.38,-0.45,-9.98,-0.01,0.0,0.03
0.44,-0.47,-10.07,-0.01,0.0,0.02
0.44,-0.43,-9.99,-0.01,0.01,0.02
0.39,-0.4,-9.98,-0.01,0.01,0.03
0.39,-0.4,-9.98,-0.01,0.01,0.02
0.44,-0.38,-10.07,-0.01,0.0,0.03
0.47,-0.37,-10.04,-0.02,0.01,0.04
0.47,-0.37,-10.04,-0.01,0.01,0.02
0.46,-0.43,-9.95,-0.01,0.01,0.03
0.43,-0.39,-9.94,-0.01,0.01,0.02
0.45,-0.43,-10.01,-0.01,0.0,0.02
0.45,-0.43,-10.01,-0.01,-0.0,0.03
0.48,-0.4,-10.0,-0.01,0.01,0.03
0.41,-0.41,-9.96,-0.01,0.01,0.03
0.42,-0.39,-10.01,-0.01,0.0,0.02
0.42,-0.39,-10.01,-0.01,0.0,0.03
0.47,-0.48,-9.97,-0.01,0.01,0.03
0.45,-0.44,-10.03,-0.01,0.0,0.02
0.45,-0.44,-10.03,-0.01,0.01,0.03
0.4,-0.42,-10.0,-0.01,0.01,0.03
0.41,-0.39,-9.96,-0.01,0.0,0.03
0.43,-0.46,-10.07,-0.01,0.0,0.02
0.43,-0.46,-10.07,-0.02,0.02,0.03
0.44,-0.41,-10.04,-0.02,0.0,0.03
0.42,-0.44,-9.91,-0.01,0.0,0.03
0.46,-0.39,-10.0,-0.01,0.01,0.03
0.46,-0.39,-10.0,-0.01,0.01,0.02
0.44,-0.48,-10.05,-0.01,0.0,0.02
0.47,-0.41,-10.03,-0.01,0.01,0.03
0.41,-0.39,-10.11,-0.01,0.01,0.03
0.41,-0.39,-10.11,-0.01,0.01,0.02
0.37,-0.47,-10.05,-0.01,0.01,0.02
0.48,-0.39,-10.0,-0.01,0.01,0.02
0.48,-0.39,-10.0,-0.01,0.01,0.03
0.49,-0.38,-9.95,-0.02,0.01,0.03
0.46,-0.44,-10.02,-0.02,0.01,0.03
0.47,-0.36,-10.05,-0.01,0.01,0.03
0.47,-0.36,-10.05,-0.01,0.01,0.03
0.52,-0.4,-9.99,-0.01,0.01,0.03
0.41,-0.46,-10.02,-0.01,0.01,0.03
0.44,-0.42,-9.99,-0.0,0.01,0.03
0.44,-0.42,-9.99,-0.01,0.0,0.03
0.47,-0.38,-9.97,-0.01,0.01,0.03
0.42,-0.42,-9.99,-0.01,0.01,0.03
0.42,-0.42,-9.99,-0.01,0.01,0.03
0.41,-0.42,-10.03,-0.01,0.01,0.02
0.32,-0.45,-9.92,-0.01,0.0,0.03
0.41,-0.43,-9.95,-0.01,0.01,0.02
0.41,-0.43,-9.95,-0.0,0.0,0.02
0.48,-0.39,-9.95,-0.01,0.0,0.03
0.43,-0.4,-9.98,-0.02,0.01,0.02
0.49,-0.42,-9.96,-0.01,0.01,0.03
0.49,-0.42,-9.96,-0.01,0.01,0.02
0.47,-0.46,-9.98,-0.02,0.0,0.03
0.43,-0.43,-10.02,-0.0,0.01,0.03
0.43,-0.43,-10.02,-0.01,0.01,0.03
0.42,-0.41,-10.0,-0.01,0.0,0.03
0.41,-0.44,-10.04,-0.01,0.01,0.03
0.44,-0.41,-10.02,-0.01,0.0,0.03
0.44,-0.41,-10.02,-0.01,0.01,0.03
0.4,-0.49,-10.01,-0.0,0.01,0.02
0.43,-0.44,-10.01,-0.01,0.01,0.03
0.46,-0.46,-10.03,-0.01,0.01,0.03
0.46,-0.46,-10.03,-0.01,0.02,0.03
0.42,-0.42,-9.99,-0.01,0.01,0.03
0.45,-0.37,-9.98,-0.02,0.0,0.03
0.45,-0.37,-9.98,-0.01,0.01,0.03
0.46,-0.46,-10.05,-0.0,0.01,0.03
0.49,-0.42,-10.03,-0.01,0.01,0.02
0.42,-0.48,-10.04,-0.01,0.0,0.03
0.42,-0.48,-10.04,-0.02,0.01,0.03
0.44,-0.43,-9.98,-0.02,0.0,0.03
0.4,-0.39,-9.96,-0.02,0.0,0.03
0.39,-0.35,-10.07,-0.01,0.0,0.02
0.39,-0.35,-10.07,-0.01,0.01,0.02
0.43,-0.4,-10.01,-0.01,0.01,0.03
0.44,-0.47,-9.92,-0.01,0.01,0.02
0.44,-0.47,-9.92,-0.01,0.0,0.03
0.44,-0.4,-10.01,-0.0,0.0,0.02
0.45,-0.45,-9.97,-0.01,0.01,0.02
0.4,-0.41,-10.05,-0.02,0.01,0.02
0.4,-0.41,-10.05,-0.01,0.01,0.03
0.49,-0.41,-10.03,-0.01,0.01,0.03
0.37,-0.41,-10.0,-0.01,0.01,0.03
0.43,-0.39,-9.98,-0.01,0.01,0.03
0.43,-0.39,-9.98,-0.01,0.01,0.03
0.44,-0.41,-9.96,-0.01,0.01,0.03
0.42,-0.45,-10.03,-0.02,0.02,0.03
0.42,-0.45,-10.03,-0.02,0.01,0.02
0.49,-0.41,-10.01,-0.01,0.01,0.03
0.44,-0.42,-10.01,-0.01,0.0,0.02
0.39,-0.48,-10.02,-0.01,0.01,0.02
0.39,-0.48,-10.02,-0.01,0.01,0.02
0.43,-0.4,-10.01,-0.01,0.01,0.02
0.44,-0.41,-9.97,-0.02,0.01,0.02
0.45,-0.44,-9.93,-0.01,0.01,0.02
0.45,-0.44,-9.93,-0.01,0.01,0.02
0.44,-0.41,-10.07,-0.01,0.01,0.03
0.45,-0.45,-10.02,-0.02,0.02,0.02
0.45,-0.45,-10.02,-0.01,0.0,0.03
0.46,-0.46,-10.01,-0.02,0.0,0.03
0.46,-0.45,-10.0,-0.02,0.01,0.03
0.4,-0.46,-9.97,-0.02,0.01,0.03
0.4,-0.46,-9.97,-0.01,0.0,0.02
0.42,-0.45,-9.99,-0.01,0.01,0.03
0.46,-0.44,-9.96,-0.01,0.0,0.03
0.43,-0.42,-10.0,-0.01,0.01,0.02
0.43,-0.42,-10.0,-0.02,0.01,0.03
0.46,-0.41,-9.96,-0.01,0.01,0.03
0.43,-0.41,-10.03,-0.01,0.0,0.03
0.43,-0.41,-10.03,-0.02,0.01,0.03
0.5,-0.44,-10.04,-0.01,0.01,0.02
0.39,-0.41,-9.96,-0.01,0.01,0.03
0.42,-0.39,-9.95,-0.01,0.01,0.02
0.42,-0.39,-9.95,-0.01,0.01,0.02
0.44,-0.44,-9.99,-0.02,0.01,0.03
0.47,-0.37,-9.99,-0.01,0.0,0.03
0.49,-0.45,-9.96,-0.02,0.0,0.02
0.49,-0.45,-9.96,-0.01,0.01,0.02
0.46,-0.43,-9.95,-0.02,0.01,0.03
0.43,-0.41,-10.02,-0.0,0.0,0.03
0.43,-0.41,-10.02,-0.01,0.0,0.02
0.49,-0.4,-10.0,-0.01,0.01,0.03
0.46,-0.43,-10.06,-0.02,0.01,0.03
0.46,-0.45,-9.96,-0.01,0.01,0.03
0.46,-0.45,-9.96,-0.02,0.01,0.03
0.42,-0.4,-10.07,-0.01,0.01,0.02
0.43,-0.42,-9.92,-0.01,0.0,0.02
0.4,-0.39,-10.03,-0.02,0.01,0.03
0.4,-0.39,-10.03,-0.01,0.0,0.03
0.44,-0.49,-10.01,-0.01,0.01,0.02
0.47,-0.39,-10.02,-0.01,0.0,0.03
0.39,-0.39,-10.03,-0.01,0.01,0.03
0.39,-0.39,-10.03,-0.01,0.01,0.02
0.44,-0.5,-10.05,-0.0,0.0,0.03
0.39,-0.42,-9.98,-0.01,0.0,0.03
0.39,-0.42,-9.98,-0.01,0.01,0.03
0.41,-0.39,-9.93,-0.01,0.0,0.03
0.43,-0.44,-10.0,-0.01,0.01,0.03
0.41,-0.49,-10.01,-0.01,0.01,0.03
0.41,-0.49,-10.01,-0.01,0.01,0.03
0.4,-0.42,-9.96,-0.01,0.01,0.03
0.48,-0.46,-9.98,-0.01,0.01,0.02
0.48,-0.46,-9.98,-0.02,0.01,0.03
0.4,-0.43,-10.1,-0.01,0.01,0.02
0.43,-0.46,-9.99,-0.01,0.01,0.02
0.36,-0.41,-10.09,-0.01,0.02,0.03
0.36,-0.41,-10.09,-0.01,0.01,0.03
0.4,-0.39,-10.06,-0.01,0.01,0.02
0.5,-0.43,-9.93,-0.01,0.01,0.03
0.39,-0.47,-10.0,-0.02,0.01,0.03
0.39,-0.47,-10.0,-0.01,0.01,0.02
0.43,-0.4,-10.01,-0.01,0.01,0.02
0.45,-0.47,-10.0,-0.01,0.01,0.03
0.45,-0.47,-10.0,-0.01,0.01,0.03
0.48,-0.46,-9.95,-0.01,0.01,0.03
0.41,-0.31,-9.97,-0.01,0.01,0.02
0.49,-0.45,-9.96,-0.01,0.0,0.02
0.49,-0.45,-9.96,-0.01,0.01,0.02
0.46,-0.42,-10.05,-0.01,0.01,0.02
0.46,-0.36,-10.04,-0.01,0.01,0.03
0.43,-0.41,-9.93,-0.01,0.01,0.03
0.43,-0.41,-9.93,-0.02,0.01,0.03
0.37,-0.4,-9.95,-0.01,0.01,0.03
0.42,-0.46,-10.03,-0.01,0.0,0.02
0.42,-0.46,-10.03,-0.01,0.0,0.02
0.43,-0.44,-9.93,-0.0,0.01,0.03
0.45,-0.41,-9.98,-0.02,0.01,0.02
0.43,-0.43,-10.01,-0.01,0.01,0.03
0.43,-0.43,-10.01,-0.01,0.01,0.03
0.42,-0.52,-9.98,-0.02,0.0,0.03
0.43,-0.4,-9.96,-0.01,0.0,0.03
0.44,-0.39,-9.98,-0.02,0.01,0.02
0.44,-0.39,-9.98,-0.01,0.01,0.03
0.4,-0.4,-9.99,-0.01,0.01,0.02
0.43,-0.45,-9.99,-0.01,0.01,0.03
0.43,-0.45,-9.99,-0.01,0.0,0.02
0.49,-0.48,-9.97,-0.01,0.0,0.03
0.44,-0.48,-9.98,-0.02,0.01,0.02
0.44,-0.46,-10.01,-0.01,0.01,0.03
0.44,-0.46,-10.01,-0.01,0.01,0.03
0.4,-0.46,-10.0,-0.01,0.0,0.03
0.49,-0.4,-10.07,-0.01,0.01,0.03
0.42,-0.43,-9.92,-0.01,-0.0,0.03
0.42,-0.43,-9.92,-0.01,0.02,0.03
0.43,-0.41,-9.96,-0.01,0.01,0.03
0.39,-0.41,-9.92,-0.02,0.0,0.02
0.39,-0.41,-9.92,-0.01,0.01,0.03
0.48,-0.39,-10.07,-0.01,0.0,0.02
0.39,-0.42,-9.97,-0.01,0.01,0.02
0.43,-0.37,-9.88,-0.01,0.01,0.03
0.43,-0.37,-9.88,-0.01,0.01,0.03
0.44,-0.46,-9.98,-0.02,0.01,0.03
0.46,-0.41,-9.97,-0.01,0.0,0.04
0.46,-0.41,-9.97,-0.02,0.01,0.02
0.41,-0.47,-9.97,-0.01,0.01,0.03
0.44,-0.41,-10.01,-0.01,0.0,0.03
0.5,-0.38,-10.01,-0.01,0.01,0.02
0.5,-0.38,-10.01,-0.01,0.0,0.03
0.46,-0.42,-9.96,-0.01,0.01,0.02
0.42,-0.39,-9.94,-0.01,0.01,0.03
0.45,-0.4,-10.0,-0.01,0.01,0.03
0.45,-0.4,-10.0,-0.01,0.01,0.02
0.4,-0.36,-9.96,-0.01,0.01,0.03
0.42,-0.46,-9.99,-0.01,0.01,0.03
0.42,-0.46,-9.99,-0.02,0.01,0.02
0.45,-0.43,-10.04,-0.02,0.01,0.03
0.38,-0.42,-9.95,-0.02,0.01,0.03
0.4,-0.4,-10.03,-0.01,0.01,0.03
0.4,-0.4,-10.03,-0.01,0.01,0.02
0.4,-0.39,-9.98,-0.01,0.02,0.03
0.39,-0.37,-10.03,-0.01,0.01,0.03
0.35,-0.48,-9.99,-0.0,0.01,0.03
0.35,-0.48,-9.99,-0.01,0.01,0.03
0.45,-0.43,-9.92,-0.02,0.01,0.03
0.43,-0.36,-10.0,-0.01,0.01,0.03
0.43,-0.36,-10.0,-0.01,0.01,0.03
0.43,-0.44,-10.04,-0.01,0.0,0.02
0.42,-0.42,-9.95,-0.01,0.01,0.03
0.46,-0.45,-10.0,-0.01,0.01,0.03
0.46,-0.45,-10.0,-0.01,0.0,0.03
0.38,-0.37,-9.92,-0.01,0.01,0.02
0.39,-0.42,-10.0,-0.01,0.02,0.02
0.43,-0.47,-10.01,-0.01,0.0,0.02
0.43,-0.47,-10.01,-0.02,0.01,0.02
0.37,-0.47,-10.07,-0.01,0.0,0.02
0.47,-0.42,-10.02,-0.01,0.01,0.02
0.47,-0.42,-10.02,-0.01,0.0,0.03
0.47,-0.46,-10.04,-0.0,0.01,0.03
0.49,-0.43,-10.1,-0.01,0.01,0.02
0.42,-0.43,-10.03,-0.01,0.02,0.03
0.42,-0.43,-10.03,-0.01,0.01,0.02
0.47,-0.45,-9.98,-0.02,0.01,0.02
0.43,-0.39,-9.97,-0.01,0.01,0.02
0.42,-0.47,-10.02,-0.01,0.01,0.02
0.42,-0.47,-10.02,-0.01,0.01,0.03
0.38,-0.43,-9.96,-0.01,0.0,0.03
0.41,-0.4,-9.93,-0.01,0.0,0.03
0.41,-0.4,-9.93,-0.02,0.01,0.02
0.4,-0.41,-10.0,-0.01,0.01,0.03
0.43,-0.44,-10.01,-0.01,0.01,0.02
0.44,-0.41,-10.0,-0.01,0.01,0.02
0.44,-0.41,-10.0,-0.01,0.01,0.03
0.44,-0.4,-10.02,-0.01,0.01,0.03
0.41,-0.44,-9.97,-0.01,0.0,0.02
0.4,-0.37,-10.01,-0.01,0.01,0.02
0.4,-0.37,-10.01,-0.01,0.0,0.03
0.49,-0.36,-9.99,-0.01,0.01,0.03
0.39,-0.44,-9.98,-0.02,0.0,0.02
0.39,-0.44,-9.98,-0.01,0.01,0.03
0.45,-0.43,-9.99,-0.01,0.02,0.03
0.43,-0.42,-9.96,-0.01,0.01,0.03
0.4,-0.42,-9.95,-0.01,0.01,0.02
0.4,-0.42,-9.95,-0.01,0.01,0.04
0.42,-0.41,-10.02,-0.01,0.01,0.03
0.4,-0.39,-10.04,-0.02,0.0,0.03
0.46,-0.48,-9.96,-0.01,0.01,0.03
0.46,-0.48,-9.96,-0.01,0.01,0.03
0.35,-0.47,-9.99,-0.01,0.01,0.03
0.41,-0.47,-9.98,-0.01,0.01,0.03
0.41,-0.47,-9.98,-0.01,0.01,0.02
0.43,-0.49,-9.99,-0.01,0.01,0.03
0.44,-0.44,-10.01,-0.01,0.01,0.03
0.38,-0.47,-10.03,-0.01,0.01,0.03
0.38,-0.47,-10.03,-0.01,0.01,0.02
0.46,-0.4,-10.0,-0.01,0.01,0.04
0.41,-0.4,-10.02,-0.01,0.01,0.02
0.42,-0.46,-9.98,-0.01,0.01,0.02
0.42,-0.46,-9.98,-0.01,0.01,0.02
0.45,-0.41,-10.0,-0.02,0.01,0.03
0.41,-0.46,-9.94,-0.01,0.01,0.02
0.41,-0.46,-9.94,-0.01,-0.0,0.03
0.37,-0.39,-10.0,-0.01,0.01,0.03
0.36,-0.43,-9.99,-0.01,0.01,0.03
0.42,-0.46,-9.96,-0.01,0.01,0.03
0.42,-0.46,-9.96,-0.01,0.01,0.02
0.39,-0.45,-9.94,-0.01,0.0,0.03
0.41,-0.45,-10.04,-0.02,0.01,0.02
0.44,-0.42,-9.97,-0.01,0.0,0.03
0.44,-0.42,-9.97,-0.01,0.01,0.02
0.42,-0.38,-9.97,-0.01,0.0,0.03
0.42,-0.47,-10.02,-0.01,0.01,0.03
0.42,-0.47,-10.02,-0.02,0.0,0.03
0.44,-0.46,-10.04,-0.01,0.01,0.02
0.43,-0.43,-9.95,-0.01,0.01,0.02
0.4,-0.38,-10.05,-0.02,0.0,0.03
0.4,-0.38,-10.05,-0.01,0.01,0.03
0.43,-0.4,-9.93,-0.02,0.0,0.03
0.38,-0.5,-9.96,-0.01,0.01,0.02
0.45,-0.39,-10.0,-0.02,0.01,0.03
0.45,-0.39,-10.0,-0.01,0.01,0.02
0.48,-0.42,-10.0,-0.01,0.01,0.02
0.47,-0.35,-10.0,-0.01,0.0,0.02
0.47,-0.35,-10.0,-0.01,0.01,0.02
0.43,-0.41,-9.98,-0.01,0.01,0.03
0.43,-0.46,-9.97,-0.01,0.0,0.03
0.44,-0.4,-10.07,-0.01,0.01,0.03
0.44,-0.4,-10.07,-0.01,0.01,0.03
0.4,-0.43,-10.03,-0.02,0.0,0.03
0.42,-0.37,-9.99,-0.01,0.0,0.02
0.37,-0.35,-9.98,-0.02,0.01,0.03
0.37,-0.35,-9.98,-0.01,0.01,0.03
0.46,-0.46,-10.01,-0.01,0.0,0.03
0.39,-0.4,-10.01,-0.01,0.0,0.03
0.39,-0.4,-10.01,-0.01,0.0,0.03
0.37,-0.43,-9.98,-0.01,0.01,0.03
0.42,-0.4,-9.89,-0.01,0.0,0.03
0.4,-0.44,-10.0,-0.01,0.01,0.03
0.4,-0.44,-10.0,-0.01,0.01,0.03
0.41,-0.44,-9.94,-0.01,0.01,0.03
0.49,-0.43,-10.01,-0.01,0.01,0.03
0.39,-0.48,-9.98,-0.02,0.01,0.03
0.39,-0.48,-9.98,-0.01,0.01,0.03
0.38,-0.43,-10.08,-0.01,0.0,0.03
0.44,-0.41,-10.03,-0.01,0.01,0.03
0.44,-0.41,-10.03,-0.01,0.01,0.03
0.49,-0.44,-10.01,-0.01,0.01,0.03
0.41,-0.44,-10.07,-0.01,0.01,0.03
0.45,-0.44,-9.99,-0.01,0.01,0.03
0.45,-0.44,-9.99,-0.0,0.01,0.03
0.46,-0.43,-10.0,-0.01,0.01,0.03
0.44,-0.5,-10.04,-0.01,0.01,0.03
0.37,-0.38,-10.05,-0.02,0.01,0.03
0.37,-0.38,-10.05,-0.01,0.0,0.02
0.44,-0.46,-10.0,-0.01,0.0,0.03
0.43,-0.53,-10.01,-0.01,0.01,0.03
0.43,-0.53,-10.01,-0.01,0.01,0.03
0.42,-0.43,-9.96,-0.01,0.01,0.02
0.41,-0.38,-10.0,-0.02,0.01,0.02
0.38,-0.38,-9.98,-0.01,0.01,0.03
0.38,-0.38,-9.98,-0.01,0.01,0.03
0.39,-0.44,-10.03,-0.01,0.01,0.03
0.46,-0.41,-10.0,-0.01,0.01,0.03
0.46,-0.42,-9.93,-0.01,0.0,0.03
0.46,-0.42,-9.93,-0.01,0.01,0.03
0.48,-0.52,-10.05,-0.01,0.0,0.01
0.43,-0.46,-9.95,-0.01,0.01,0.02
0.43,-0.46,-9.95,-0.01,0.01,0.03
0.45,-0.42,-9.97,-0.01,0.01,0.03
0.42,-0.43,-10.0,-0.01,0.0,0.03
0.39,-0.44,-9.96,-0.01,-0.0,0.03
0.39,-0.44,-9.96,-0.02,0.01,0.03
0.49,-0.45,-10.06,-0.01,0.02,0.02
0.41,-0.42,-10.02,-0.01,0.01,0.02
0.42,-0.43,-10.0,-0.01,0.0,0.02
0.42,-0.43,-10.0,-0.01,0.01,0.03
0.38,-0.44,-9.98,-0.01,0.01,0.03
0.42,-0.45,-10.0,-0.01,0.01,0.03
0.42,-0.45,-10.0,-0.01,0.01,0.03
0.38,-0.43,-9.99,-0.01,0.01,0.03
0.43,-0.41,-9.99,-0.01,0.01,0.02
0.46,-0.43,-9.99,-0.01,0.0,0.03
0.46,-0.43,-9.99,-0.01,0.01,0.03
0.4,-0.4,-9.99,-0.01,0.01,0.02
0.51,-0.44,-9.96,-0.0,0.01,0.02
0.51,-0.44,-9.96,-0.01,0.0,0.03
0.43,-0.48,-10.09,-0.01,0.0,0.03
0.47,-0.43,-10.03,-0.01,0.01,0.02
0.4,-0.4,-9.97,-0.01,0.01,0.03
0.4,-0.4,-9.97,-0.01,0.01,0.02
0.46,-0.44,-10.02,-0.02,0.01,0.02
0.42,-0.44,-10.07,-0.01,0.01,0.03
0.43,-0.42,-10.01,-0.02,0.01,0.03
0.43,-0.42,-10.01,-0.02,0.0,0.03
0.43,-0.4,-9.94,-0.01,0.0,0.02
0.48,-0.45,-9.98,-0.01,0.01,0.02
0.48,-0.45,-9.98,-0.01,0.01,0.02
0.36,-0.42,-10.02,-0.01,0.01,0.03
0.37,-0.43,-10.03,-0.02,0.01,0.02
0.46,-0.41,-9.97,-0.01,0.01,0.03
0.46,-0.41,-9.97,-0.01,0.0,0.02
0.38,-0.41,-10.0,-0.01,0.01,0.02
0.49,-0.44,-10.09,-0.01,0.01,0.03
0.39,-0.48,-10.0,-0.01,0.01,0.02
0.39,-0.48,-10.0,-0.01,0.01,0.02
0.44,-0.42,-10.05,-0.01,0.01,0.03
0.46,-0.41,-9.97,-0.01,0.01,0.02
0.46,-0.41,-9.97,-0.01,0.0,0.03
0.42,-0.43,-9.98,-0.01,0.0,0.02
0.38,-0.39,-10.01,-0.01,0.01,0.02
0.46,-0.4,-9.92,-0.01,0.01,0.03
0.46,-0.4,-9.92,-0.02,0.01,0.02
0.46,-0.48,-10.01,-0.01,0.01,0.03
0.42,-0.46,-10.04,-0.01,0.01,0.03
0.41,-0.48,-10.05,-0.01,0.01,0.02
0.41,-0.48,-10.05,-0.02,0.01,0.03
0.43,-0.44,-9.93,-0.02,0.0,0.03
0.44,-0.38,-9.97,-0.02,0.01,0.03
0.44,-0.38,-9.97,-0.01,0.02,0.03
0.44,-0.4,-10.04,-0.0,0.01,0.03
0.42,-0.43,-10.0,-0.01,0.01,0.03
0.35,-0.37,-10.04,-0.01,0.01,0.02
0.35,-0.37,-10.04,-0.01,0.0,0.03
0.51,-0.46,-9.94,-0.02,0.01,0.03
0.42,-0.38,-9.98,-0.01,0.01,0.03
0.42,-0.42,-10.01,-0.01,0.0,0.03
0.42,-0.42,-10.01,-0.01,0.01,0.03
0.4,-0.45,-9.94,-0.01,0.01,0.02
0.47,-0.42,-10.0,-0.01,0.01,0.03
0.47,-0.42,-10.0,-0.02,0.01,0.02
0.47,-0.48,-9.99,-0.02,0.01,0.03
0.42,-0.39,-9.98,-0.01,0.01,0.03
0.48,-0.41,-9.98,-0.01,0.01,0.03
0.48,-0.41,-9.98,-0.01,0.0,0.03
0.42,-0.45,-9.98,-0.01,0.01,0.03
0.4,-0.41,-10.03,-0.01,0.0,0.02
0.43,-0.46,-9.97,-0.01,0.01,0.03
0.43,-0.46,-9.97,-0.01,0.01,0.03
0.44,-0.45,-9.95,-0.01,0.0,0.03
0.47,-0.43,-9.96,-0.0,0.01,0.02
0.47,-0.43,-9.96,-0.01,0.0,0.03
0.45,-0.45,-10.01,-0.01,0.01,0.02
0.37,-0.48,-10.07,-0.01,0.01,0.03
0.37,-0.42,-10.03,-0.0,0.01,0.03
0.37,-0.42,-10.03,-0.02,0.01,0.02
0.49,-0.49,-10.14,-0.01,0.0,0.03
0.44,-0.41,-9.96,-0.01,0.01,0.02
0.46,-0.45,-10.07,-0.01,0.0,0.03
0.46,-0.45,-10.07,-0.01,0.0,0.03
0.42,-0.37,-10.06,-0.01,0.01,0.03
0.46,-0.44,-10.1,-0.01,0.0,0.02
0.46,-0.44,-10.1,-0.01,0.0,0.02
0.44,-0.44,-10.01,-0.01,0.01,0.03
0.39,-0.37,-10.0,-0.01,0.0,0.02
0.44,-0.41,-9.98,-0.01,0.0,0.03
0.44,-0.41,-9.98,-0.01,0.01,0.02
0.45,-0.34,-9.98,-0.01,0.0,0.02
0.41,-0.34,-10.05,-0.01,0.01,0.02
0.42,-0.46,-9.99,-0.01,0.01,0.02
0.42,-0.46,-9.99,-0.02,0.01,0.03
0.39,-0.5,-10.06,-0.01,0.01,0.03
0.42,-0.38,-9.97,-0.01,0.01,0.03
0.42,-0.38,-9.97,-0.01,0.01,0.03
0.45,-0.41,-9.94,-0.01,0.0,0.03
0.41,-0.39,-10.01,-0.02,0.01,0.03
0.39,-0.42,-10.04,-0.01,0.01,0.03
0.39,-0.42,-10.04,-0.02,0.01,0.03
0.47,-0.5,-10.01,-0.01,0.0,0.02
0.39,-0.37,-9.99,-0.01,0.01,0.03
0.47,-0.44,-9.98,-0.01,0.01,0.03
0.47,-0.44,-9.98,-0.01,0.01,0.03
0.45,-0.43,-9.97,-0.01,0.01,0.03
0.45,-0.46,-10.02,-0.01,0.01,0.03
0.45,-0.46,-10.02,-0.02,0.01,0.03
0.48,-0.41,-10.03,-0.02,0.0,0.03
0.46,-0.4,-9.98,-0.01,0.0,0.03
0.46,-0.46,-10.04,-0.01,0.01,0.03
0.46,-0.46,-10.04,-0.01,0.01,0.03
0.37,-0.4,-9.95,-0.02,0.01,0.03
0.34,-0.44,-9.99,-0.01,0.01,0.03
0.43,-0.47,-9.99,-0.01,0.0,0.03
0.43,-0.47,-9.99,-0.01,0.01,0.03
0.36,-0.42,-9.97,-0.01,0.01,0.03
0.48,-0.44,-10.02,-0.01,0.01,0.02
0.48,-0.44,-10.02,-0.01,0.01,0.03
0.4,-0.49,-10.0,-0.01,0.0,0.03
0.49,-0.5,-10.0,-0.01,0.01,0.03
0.43,-0.44,-9.98,-0.01,0.02,0.03
0.43,-0.44,-9.98,-0.01,0.02,0.03
0.42,-0.36,-9.96,-0.01,0.01,0.03
0.43,-0.38,-10.0,-0.01,0.0,0.02
0.51,-0.36,-9.96,-0.01,0.0,0.03
0.51,-0.36,-9.96,-0.01,0.0,0.03
0.43,-0.42,-9.96,-0.01,0.01,0.03
0.45,-0.41,-9.97,-0.01,0.01,0.03
0.38,-0.39,-10.01,-0.01,0.01,0.04
0.38,-0.39,-10.01,-0.01,0.01,0.03
0.48,-0.42,-10.01,-0.0,0.01,0.03
0.39,-0.42,-10.06,-0.01,0.01,0.01
0.39,-0.42,-10.06,-0.01,0.0,0.03
0.38,-0.42,-10.0,-0.01,0.01,0.03
0.4,-0.47,-10.05,-0.01,0.01,0.03
0.45,-0.41,-9.94,-0.01,0.01,0.03
0.45,-0.41,-9.94,-0.01,0.01,0.03
0.42,-0.45,-10.11,-0.01,0.01,0.02
0.47,-0.36,-9.97,-0.01,0.01,0.03
0.47,-0.37,-10.01,-0.01,0.01,0.03
0.47,-0.37,-10.01,-0.02,0.0,0.03
0.42,-0.35,-9.99,-0.02,0.01,0.03
0.41,-0.44,-9.99,-0.01,0.01,0.03
0.41,-0.44,-9.99,-0.01,0.01,0.03
0.37,-0.36,-9.98,-0.01,0.01,0.03
0.46,-0.42,-10.02,-0.01,0.01,0.03
0.41,-0.39,-10.04,-0.01,0.01,0.03
0.41,-0.39,-10.04,-0.01,0.01,0.02
0.39,-0.41,-10.03,-0.01,0.01,0.03
0.48,-0.42,-9.97,-0.01,0.01,0.02
0.43,-0.39,-10.04,-0.01,0.01,0.02
0.43,-0.39,-10.04,-0.01,0.0,0.02
0.37,-0.45,-9.95,-0.01,0.01,0.03
0.45,-0.42,-9.95,-0.02,0.01,0.02
0.45,-0.42,-9.95,-0.01,0.01,0.03
0.42,-0.43,-9.93,-0.01,0.01,0.03
0.43,-0.39,-9.97,-0.01,0.01,0.02
0.47,-0.44,-10.04,-0.01,0.02,0.02
0.47,-0.44,-10.04,-0.01,0.0,0.03
0.45,-0.43,-10.1,-0.02,0.01,0.03
0.4,-0.37,-9.94,-0.01,0.0,0.03
0.41,-0.39,-9.97,-0.01,0.0,0.03
0.41,-0.39,-9.97,-0.01,0.01,0.03
0.41,-0.42,-9.99,-0.01,0.0,0.03
0.41,-0.42,-9.98,-0.01,0.01,0.03
0.5,-0.43,-9.98,-0.01,0.01,0.02
0.5,-0.43,-9.98,-0.01,0.01,0.03
0.4,-0.37,-10.01,-0.01,0.01,0.03
0.47,-0.45,-10.03,-0.02,0.01,0.02
0.47,-0.45,-10.03,-0.02,0.01,0.02
0.44,-0.4,-9.98,-0.01,0.01,0.02
0.48,-0.44,-10.0,-0.01,0.01,0.03
0.47,-0.38,-10.01,-0.01,0.02,0.03
0.47,-0.38,-10.01,-0.01,0.01,0.02
0.43,-0.43,-9.96,-0.01,0.0,0.02
0.4,-0.42,-10.0,-0.02,0.01,0.03
0.41,-0.38,-9.96,-0.01,0.0,0.02
0.41,-0.38,-9.96,-0.01,0.02,0.02
0.48,-0.43,-10.02,-0.01,0.01,0.02
0.47,-0.4,-10.07,-0.01,0.01,0.03
0.47,-0.4,-10.07,-0.01,0.0,0.02
0.43,-0.39,-9.99,-0.01,0.01,0.02
0.43,-0.36,-10.01,-0.01,0.01,0.03
0.47,-0.43,-9.98,-0.01,0.0,0.03
0.47,-0.43,-9.98,-0.01,0.01,0.03
0.46,-0.46,-10.02,-0.02,0.01,0.03
0.5,-0.42,-9.99,-0.01,0.0,0.02
0.43,-0.36,-10.02,-0.01,0.01,0.02
0.43,-0.36,-10.02,-0.02,0.01,0.02
0.38,-0.45,-9.98,-0.02,0.01,0.03
0.42,-0.46,-9.94,-0.01,0.01,0.03
0.42,-0.46,-9.94,-0.01,0.01,0.02
0.42,-0.44,-10.04,-0.01,0.01,0.03
0.4,-0.44,-10.07,-0.01,0.0,0.02
0.49,-0.42,-10.04,-0.01,0.01,0.02
0.49,-0.42,-10.04,-0.01,0.01,0.03
0.43,-0.41,-9.92,-0.02,0.0,0.02
0.45,-0.48,-10.05,-0.01,0.02,0.02
0.43,-0.5,-10.04,-0.01,0.0,0.02
0.43,-0.5,-10.04,-0.01,0.01,0.03
0.45,-0.43,-9.96,-0.01,0.0,0.03
0.43,-0.49,-10.0,-0.01,0.0,0.02
0.43,-0.49,-10.0,-0.01,0.01,0.02
0.42,-0.46,-9.9,-0.0,0.01,0.03
0.44,-0.47,-9.99,-0.02,0.01,0.03
0.44,-0.4,-9.97,-0.01,0.01,0.02
0.44,-0.4,-9.97,-0.01,0.01,0.03
0.48,-0.39,-10.04,-0.01,0.01,0.03
0.47,-0.5,-10.0,-0.01,0.0,0.03
0.44,-0.45,-9.94,-0.01,0.01,0.03
0.44,-0.45,-9.94,-0.01,0.01,0.03
0.37,-0.44,-10.03,-0.02,0.01,0.02
0.46,-0.44,-9.93,-0.01,0.0,0.02
0.46,-0.44,-9.93,-0.0,0.01,0.03
0.51,-0.44,-10.0,-0.01,0.0,0.03
0.42,-0.39,-9.97,-0.01,0.01,0.03
0.47,-0.46,-9.99,-0.0,0.01,0.03
0.47,-0.46,-9.99,-0.01,0.01,0.03
0.39,-0.38,-9.92,-0.01,0.01,0.03
0.39,-0.37,-9.98,-0.01,0.01,0.02
0.47,-0.45,-9.93,-0.01,0.01,0.02
0.47,-0.45,-9.93,-0.01,0.01,0.03
0.37,-0.42,-10.0,-0.01,-0.0,0.02
0.5,-0.47,-9.95,-0.01,0.01,0.03
0.5,-0.47,-9.95,-0.01,0.0,0.02
0.42,-0.47,-10.02,-0.01,0.01,0.03
0.44,-0.39,-9.98,-0.01,0.0,0.03
0.41,-0.44,-10.05,-0.0,0.02,0.02
0.41,-0.44,-10.05,-0.02,0.01,0.03
0.53,-0.35,-9.95,-0.01,0.01,0.03
0.42,-0.41,-10.03,-0.01,0.0,0.02
0.45,-0.39,-9.99,-0.01,0.01,0.02
0.45,-0.39,-9.99,-0.01,0.0,0.02
0.38,-0.45,-9.97,-0.01,0.0,0.02
0.45,-0.34,-9.94,-0.01,0.0,0.02
0.45,-0.34,-9.94,-0.01,0.01,0.03
0.41,-0.44,-10.0,-0.01,0.01,0.03
0.42,-0.42,-9.99,-0.01,0.0,0.03
0.38,-0.44,-9.99,-0.01,0.0,0.02
0.38,-0.44,-9.99,-0.01,0.0,0.03
0.41,-0.42,-9.99,-0.01,0.01,0.03
0.37,-0.41,-10.07,-0.01,0.01,0.03
0.4,-0.43,-10.03,-0.01,0.0,0.02
0.4,-0.43,-10.03,-0.01,0.01,0.03
0.43,-0.35,-9.93,-0.01,0.0,0.03
0.44,-0.36,-9.96,-0.01,0.01,0.03
0.44,-0.36,-9.96,0.0,0.01,0.02
0.45,-0.43,-9.99,-0.02,0.0,0.03
0.39,-0.39,-9.9,-0.01,0.0,0.03
0.37,-0.51,-10.01,-0.02,0.01,0.03
0.37,-0.51,-10.01,-0.01,0.0,0.03
0.42,-0.38,-9.95,-0.01,0.0,0.03
0.45,-0.47,-10.01,-0.01,0.0,0.02
0.45,-0.47,-10.01,-0.02,0.01,0.03
0.43,-0.43,-10.04,-0.01,0.01,0.03
0.51,-0.47,-9.99,-0.01,0.0,0.02
0.4,-0.37,-9.97,-0.01,0.01,0.03
0.4,-0.37,-9.97,-0.01,0.01,0.03
0.4,-0.46,-10.04,-0.01,0.01,0.03
0.42,-0.49,-9.88,-0.01,0.0,0.03
0.43,-0.36,-9.99,-0.01,0.01,0.03
0.43,-0.36,-9.99,-0.01,0.01,0.02
0.48,-0.41,-10.03,-0.01,0.01,0.02
0.44,-0.45,-9.9,-0.01,0.0,0.03
0.44,-0.45,-9.9,-0.01,0.01,0.03
0.51,-0.46,-9.96,-0.01,0.01,0.02
0.42,-0.44,-9.94,-0.01,0.02,0.03
0.44,-0.41,-9.96,-0.01,0.01,0.03
0.44,-0.41,-9.96,-0.0,0.01,0.02
0.39,-0.38,-10.03,-0.01,0.01,0.03
0.41,-0.44,-10.02,-0.02,0.01,0.03
0.45,-0.42,-10.02,-0.01,0.0,0.03
0.45,-0.42,-10.02,-0.01,0.01,0.03
0.41,-0.44,-9.96,-0.01,0.0,0.02
0.35,-0.34,-9.98,-0.01,0.01,0.02
0.35,-0.34,-9.98,-0.01,0.0,0.03
0.43,-0.46,-9.97,-0.01,0.01,0.02
0.46,-0.4,-10.05,-0.01,0.01,0.03
0.38,-0.39,-10.06,-0.01,0.01,0.03
0.38,-0.39,-10.06,-0.02,0.01,0.03
0.46,-0.37,-10.05,-0.01,0.0,0.03
0.52,-0.42,-9.99,-0.0,0.01,0.03
0.39,-0.35,-10.01,-0.01,0.01,0.03
0.39,-0.35,-10.01,-0.01,0.01,0.03
0.51,-0.44,-10.05,-0.0,0.01,0.02
0.39,-0.42,-10.01,-0.01,0.01,0.02
0.39,-0.42,-10.01,-0.01,0.0,0.03
0.41,-0.43,-10.0,-0.01,0.01,0.03
0.44,-0.44,-9.98,-0.02,0.01,0.03
0.46,-0.38,-9.97,-0.01,0.01,0.02
0.46,-0.38,-9.97,-0.0,0.01,0.03
0.47,-0.44,-10.01,-0.01,0.01,0.03
0.43,-0.47,-9.95,-0.01,0.01,0.03
0.45,-0.44,-9.95,-0.02,0.01,0.03
0.45,-0.44,-9.95,-0.02,0.01,0.03
0.47,-0.48,-9.96,-0.02,0.01,0.02
0.46,-0.42,-10.0,-0.01,0.01,0.02
0.46,-0.42,-10.0,-0.02,0.0,0.03
0.48,-0.39,-10.06,-0.01,0.0,0.03
0.41,-0.44,-10.04,-0.01,0.02,0.02
0.45,-0.39,-10.02,-0.01,0.0,0.03
0.45,-0.39,-10.02,-0.01,0.01,0.02
0.5,-0.43,-9.96,-0.01,0.0,0.03
0.4,-0.39,-9.92,-0.02,0.01,0.03
0.42,-0.47,-10.01,-0.01,0.01,0.03
0.42,-0.47,-10.01,-0.01,0.01,0.02
0.49,-0.47,-9.96,-0.01,0.01,0.03
0.48,-0.48,-10.07,-0.01,0.01,0.02
0.48,-0.48,-10.07,-0.01,0.01,0.03
0.46,-0.37,-10.0,-0.01,0.01,0.03
0.43,-0.45,-10.07,-0.01,0.0,0.02
0.57,-0.43,-10.02,-0.01,0.0,0.03
0.57,-0.43,-10.02,-0.01,0.0,0.03
0.45,-0.41,-9.96,-0.01,0.01,0.03
0.5,-0.39,-10.0,-0.01,0.01,0.02
0.39,-0.43,-10.04,-0.01,0.01,0.02
0.39,-0.43,-10.04,-0.01,0.01,0.02
0.38,-0.39,-10.04,-0.01,0.01,0.03
0.44,-0.41,-10.0,-0.01,0.0,0.03
0.44,-0.41,-10.0,-0.01,0.01,0.03
0.42,-0.44,-9.97,-0.01,0.02,0.02
0.45,-0.5,-9.91,-0.01,0.01,0.03
0.45,-0.37,-10.05,-0.02,0.01,0.03
0.45,-0.37,-10.05,-0.01,0.01,0.02
0.43,-0.47,-9.99,-0.01,0.01,0.02
0.46,-0.44,-10.05,-0.02,0.01,0.03
0.47,-0.41,-10.05,-0.01,0.01,0.02
0.47,-0.41,-10.05,-0.01,0.01,0.03
0.38,-0.4,-10.04,-0.01,0.01,0.02
0.44,-0.35,-9.97,-0.01,0.01,0.02
0.44,-0.35,-9.97,-0.01,0.0,0.02
0.44,-0.49,-9.96,-0.01,0.01,0.03
0.41,-0.43,-10.04,-0.01,0.01,0.02
0.45,-0.49,-10.01,-0.01,0.01,0.02
0.45,-0.49,-10.01,-0.01,0.01,0.03
0.43,-0.42,-9.97,-0.01,0.01,0.03
0.4,-0.37,-10.07,-0.02,0.0,0.03
0.45,-0.43,-10.04,-0.01,0.0,0.02
0.45,-0.43,-10.04,-0.01,0.01,0.02
0.47,-0.37,-9.97,-0.01,0.0,0.03
0.46,-0.46,-9.95,-0.01,0.01,0.03
0.46,-0.46,-9.95,-0.01,0.0,0.03
0.49,-0.5,-10.03,-0.01,0.01,0.03
0.44,-0.41,-9.96,-0.01,0.0,0.03
0.43,-0.46,-9.96,-0.01,0.01,0.02
0.43,-0.46,-9.96,-0.02,0.0,0.03
0.45,-0.38,-9.94,-0.02,0.0,0.02
0.4,-0.39,-9.92,-0.01,0.01,0.03
0.45,-0.4,-10.07,-0.01,0.0,0.02
0.45,-0.4,-10.07,-0.01,0.01,0.03
0.43,-0.38,-10.02,-0.01,0.0,0.03
0.43,-0.37,-10.03,-0.01,0.0,0.03
0.43,-0.37,-10.03,-0.01,0.01,0.03
0.44,-0.41,-9.94,-0.01,0.01,0.03
0.42,-0.45,-10.0,-0.01,0.01,0.03
0.42,-0.48,-10.01,-0.01,0.02,0.03
0.42,-0.48,-10.01,-0.01,0.01,0.03
0.48,-0.44,-9.94,-0.02,0.01,0.03
0.48,-0.37,-10.0,-0.01,0.0,0.02
0.48,-0.37,-10.0,-0.01,0.0,0.02
0.47,-0.42,-9.99,-0.01,0.01,0.03
0.46,-0.37,-9.99,-0.01,0.01,0.02
0.48,-0.39,-10.04,-0.01,0.01,0.02
0.48,-0.39,-10.04,-0.01,0.01,0.03
0.41,-0.44,-9.96,-0.01,-0.0,0.03
0.43,-0.4,-10.02,-0.01,0.01,0.02
0.46,-0.39,-9.97,-0.01,0.01,0.03
0.46,-0.39,-9.97,-0.01,0.01,0.03
0.49,-0.42,-10.0,-0.01,0.01,0.03
0.41,-0.43,-9.96,-0.01,0.0,0.03
0.41,-0.43,-9.96,-0.01,0.01,0.03
0.43,-0.4,-9.95,-0.01,0.01,0.03
0.48,-0.45,-9.99,-0.01,0.01,0.03
0.44,-0.36,-10.05,-0.01,0.01,0.02
0.44,-0.36,-10.05,-0.01,0.01,0.02
0.43,-0.41,-10.05,-0.02,0.01,0.02
0.43,-0.45,-9.93,-0.01,0.01,0.03
0.42,-0.47,-10.02,-0.01,0.01,0.03
0.42,-0.47,-10.02,-0.01,0.01,0.03
0.46,-0.37,-9.92,-0.01,0.01,0.03
0.45,-0.41,-9.94,-0.01,0.01,0.03
0.45,-0.41,-9.94,-0.01,0.01,0.01
0.38,-0.45,-9.96,-0.01,0.01,0.03
0.46,-0.41,-9.98,-0.01,0.01,0.03
0.48,-0.44,-10.03,-0.01,-0.0,0.03
0.48,-0.44,-10.03,-0.01,0.01,0.02
0.46,-0.4,-9.95,-0.01,0.01,0.02
0.42,-0.45,-9.92,-0.02,0.01,0.03
0.42,-0.43,-10.04,-0.01,0.0,0.02
0.42,-0.43,-10.04,-0.01,0.01,0.02
0.47,-0.39,-9.92,-0.0,0.01,0.03
0.46,-0.39,-10.04,-0.01,0.01,0.02
0.46,-0.39,-10.04,-0.01,0.01,0.03
0.4,-0.42,-9.95,-0.01,0.01,0.03
0.47,-0.44,-9.97,-0.01,0.01,0.03
0.46,-0.4,-10.03,-0.02,0.01,0.03
0.46,-0.4,-10.03,-0.01,0.0,0.03
0.46,-0.38,-10.01,-0.01,0.0,0.03
0.41,-0.37,-10.06,-0.02,0.0,0.02
0.47,-0.36,-9.99,-0.01,0.01,0.02
0.47,-0.36,-9.99,-0.01,0.01,0.03
0.43,-0.42,-9.97,-0.01,0.01,0.02
0.55,-0.51,-9.97,-0.01,0.01,0.02
0.55,-0.51,-9.97,-0.01,0.01,0.03
0.46,-0.38,-9.96,-0.01,0.01,0.03
0.46,-0.44,-9.92,-0.02,0.02,0.02
0.42,-0.38,-9.87,-0.01,0.01,0.03
0.42,-0.38,-9.87,-0.01,0.0,0.03
0.53,-0.36,-9.93,-0.02,0.02,0.02
0.43,-0.4,-9.98,-0.01,0.01,0.03
0.47,-0.36,-9.99,-0.01,0.0,0.03
0.47,-0.36,-9.99,-0.0,0.01,0.03
0.45,-0.42,-10.0,-0.01,0.01,0.03
0.47,-0.42,-9.9,-0.01,0.0,0.02
0.47,-0.42,-9.9,-0.02,0.0,0.02
0.47,-0.35,-10.0,-0.01,0.0,0.03
0.4,-0.43,-9.96,-0.01,0.01,0.03
0.41,-0.43,-10.0,-0.01,0.01,0.03
0.41,-0.43,-10.0,-0.01,0.01,0.03
0.48,-0.35,-9.97,-0.01,0.0,0.03
0.38,-0.34,-10.01,-0.0,0.01,0.03
0.43,-0.42,-10.0,-0.01,0.0,0.03
0.43,-0.42,-10.0,-0.01,0.01,0.02
0.37,-0.38,-10.04,-0.02,0.01,0.03
0.4,-0.42,-9.97,-0.01,-0.0,0.02
0.4,-0.42,-9.97,-0.02,0.01,0.03
0.46,-0.41,-9.95,-0.02,0.01,0.03
0.41,-0.34,-9.95,-0.01,0.01,0.02
0.43,-0.38,-9.98,-0.02,0.0,0.03
0.43,-0.38,-9.98,-0.01,0.0,0.02
0.46,-0.37,-9.99,-0.02,0.01,0.03
0.47,-0.37,-10.02,-0.01,0.0,0.02
0.47,-0.37,-10.02,-0.02,0.01,0.03
0.43,-0.4,-10.03,-0.02,0.01,0.03
0.46,-0.43,-9.93,-0.01,0.01,0.03
0.47,-0.39,-10.03,-0.02,0.01,0.02
0.47,-0.39,-10.03,-0.01,0.01,0.03
0.45,-0.39,-9.86,-0.0,0.01,0.03
0.49,-0.48,-9.99,-0.01,0.01,0.02
0.45,-0.43,-9.9,-0.01,0.01,0.03
0.45,-0.43,-9.9,-0.01,0.01,0.03
0.52,-0.41,-9.98,-0.01,0.01,0.03
0.46,-0.37,-9.99,-0.02,0.01,0.03
0.34,-0.4,-9.99,-0.01,0.0,0.03
0.34,-0.4,-9.99,-0.01,0.01,0.03
0.38,-0.39,-9.98,-0.01,0.0,0.02
0.34,-0.41,-10.0,-0.01,0.01,0.03
0.34,-0.41,-10.0,-0.01,0.01,0.03
0.43,-0.48,-9.99,-0.01,0.01,0.02
0.49,-0.48,-10.03,-0.01,0.01,0.02
0.43,-0.41,-9.99,-0.01,0.01,0.03
0.43,-0.41,-9.99,-0.02,0.01,0.03
0.4,-0.37,-9.92,-0.01,0.01,0.03
0.47,-0.41,-10.02,-0.02,0.0,0.02
0.45,-0.45,-10.07,-0.01,0.01,0.03
0.45,-0.45,-10.07,-0.02,0.01,0.02
0.38,-0.45,-10.03,-0.01,0.01,0.02
0.42,-0.42,-10.0,-0.01,0.01,0.03
0.42,-0.42,-10.0,-0.01,0.0,0.03
0.46,-0.42,-9.96,-0.01,0.01,0.02
0.46,-0.44,-9.99,-0.01,0.01,0.02
0.44,-0.37,-9.97,-0.01,0.0,0.02
0.44,-0.37,-9.97,-0.01,0.01,0.02
0.48,-0.47,-9.98,-0.01,0.01,0.03
0.48,-0.42,-10.03,-0.01,0.01,0.03
0.49,-0.43,-9.92,-0.02,0.01,0.03
0.49,-0.43,-9.92,-0.01,0.01,0.02
0.44,-0.43,-9.89,-0.01,0.0,0.03
0.39,-0.43,-9.97,-0.01,0.0,0.03
0.39,-0.43,-9.97,-0.01,0.0,0.03
0.4,-0.38,-9.93,-0.01,0.01,0.02
0.42,-0.38,-9.99,-0.02,0.01,0.02
0.46,-0.34,-10.05,-0.01,0.0,0.03
0.46,-0.34,-10.05,-0.02,0.0,0.03
0.45,-0.36,-9.96,-0.02,0.01,0.02
0.45,-0.4,-9.95,-0.01,0.0,0.02
0.45,-0.48,-10.0,-0.01,0.01,0.02
0.45,-0.48,-10.0,-0.01,0.01,0.03
0.42,-0.37,-10.07,-0.01,0.01,0.03
0.4,-0.42,-9.96,-0.01,0.01,0.02
0.4,-0.42,-9.96,-0.01,0.0,0.03
0.47,-0.39,-9.95,-0.01,0.0,0.03
0.45,-0.42,-10.01,-0.01,0.01,0.02
0.47,-0.37,-9.91,-0.01,0.01,0.03
0.47,-0.37,-9.91,-0.02,0.01,0.03
0.43,-0.38,-9.94,-0.01,0.01,0.03
0.51,-0.38,-9.97,-0.01,0.0,0.03
0.43,-0.44,-9.98,-0.01,0.02,0.03
0.43,-0.44,-9.98,-0.02,0.01,0.03
0.43,-0.45,-9.92,-0.01,0.01,0.03
0.33,-0.43,-9.99,-0.02,0.01,0.03
0.33,-0.43,-9.99,-0.01,0.02,0.03
0.42,-0.38,-9.98,-0.02,0.01,0.02
0.46,-0.39,-9.98,-0.01,0.0,0.03
0.4,-0.45,-10.03,-0.01,0.0,0.03
0.4,-0.45,-10.03,-0.01,0.02,0.03
0.46,-0.39,-9.84,-0.02,0.01,0.03
0.42,-0.38,-9.96,-0.02,0.0,0.03
0.41,-0.41,-9.96,-0.01,0.01,0.02
0.41,-0.41,-9.96,-0.01,0.01,0.03
0.41,-0.43,-10.05,-0.01,0.02,0.03
0.42,-0.37,-9.94,-0.01,0.01,0.02
0.42,-0.37,-9.94,-0.01,0.02,0.03
0.45,-0.39,-9.98,-0.01,0.01,0.02
0.47,-0.43,-9.94,-0.02,0.01,0.03
0.5,-0.4,-9.92,-0.01,0.01,0.03
0.5,-0.4,-9.92,-0.01,0.01,0.02
0.4,-0.48,-10.01,-0.01,0.01,0.02
0.46,-0.4,-9.96,-0.01,0.0,0.02
0.41,-0.43,-9.92,-0.02,0.01,0.03
0.41,-0.43,-9.92,-0.01,0.01,0.03
0.51,-0.42,-9.94,-0.01,0.01,0.03
0.45,-0.39,-9.95,-0.0,0.01,0.03
0.45,-0.39,-9.95,-0.01,0.01,0.02
0.43,-0.39,-9.94,-0.01,0.01,0.02
0.45,-0.47,-9.92,-0.01,0.01,0.03
0.36,-0.39,-10.02,-0.01,0.01,0.02
0.36,-0.39,-10.02,-0.01,0.01,0.03
0.48,-0.41,-10.02,-0.02,0.01,0.03
0.47,-0.37,-9.94,-0.01,0.01,0.03
0.49,-0.44,-9.97,-0.02,0.01,0.03
0.49,-0.44,-9.97,-0.01,0.01,0.03
0.41,-0.44,-9.93,-0.01,0.0,0.03
0.43,-0.5,-10.01,-0.01,0.01,0.03
0.43,-0.5,-10.01,-0.01,0.01,0.02
0.38,-0.43,-9.98,-0.01,0.01,0.02
0.51,-0.4,-9.98,-0.01,0.01,0.03
0.46,-0.41,-9.99,-0.01,0.01,0.03
0.46,-0.41,-9.99,-0.01,0.01,0.02
0.5,-0.4,-9.96,-0.01,0.01,0.02
0.44,-0.4,-9.95,-0.01,0.0,0.02
0.44,-0.44,-9.98,-0.02,0.01,0.03
0.44,-0.44,-9.98,-0.01,0.0,0.03
0.47,-0.44,-9.96,-0.01,0.01,0.03
0.43,-0.41,-10.01,-0.01,0.01,0.02
0.43,-0.41,-10.01,-0.01,0.01,0.02
0.43,-0.38,-10.04,-0.02,0.01,0.02
0.49,-0.36,-9.96,-0.01,0.0,0.03
0.52,-0.41,-9.96,-0.01,0.0,0.03
0.52,-0.41,-9.96,-0.01,0.01,0.03
0.43,-0.42,-9.94,-0.01,0.01,0.03
0.46,-0.41,-9.95,-0.01,0.01,0.02
0.47,-0.38,-10.0,-0.01,0.01,0.02
0.47,-0.38,-10.0,-0.0,0.01,0.03
0.48,-0.39,-9.92,-0.01,0.01,0.02
0.41,-0.39,-9.98,-0.01,0.01,0.02
0.41,-0.39,-9.98,-0.01,0.0,0.03
0.41,-0.34,-9.98,-0.01,0.01,0.02
0.4,-0.4,-10.02,-0.01,0.01,0.03
0.41,-0.39,-9.95,-0.01,0.01,0.03
0.41,-0.39,-9.95,-0.01,0.0,0.02
0.5,-0.47,-10.05,-0.01,0.01,0.02
0.5,-0.47,-10.05,-0.01,0.01,0.03
0.44,-0.49,-9.97,-0.02,0.0,0.02
0.44,-0.49,-9.97,-0.01,0.01,0.02
0.39,-0.44,-9.95,-0.01,0.01,0.01
0.39,-0.39,-9.98,-0.01,0.01,0.02
0.39,-0.39,-9.98,-0.01,0.01,0.03
0.43,-0.42,-10.01,-0.01,0.0,0.03
0.44,-0.35,-9.99,-0.0,0.01,0.02
0.49,-0.4,-9.94,-0.01,0.01,0.04
0.49,-0.4,-9.94,-0.02,0.01,0.03
0.42,-0.38,-10.01,-0.01,0.01,0.02
0.34,-0.38,-9.99,-0.01,0.01,0.03
0.39,-0.41,-10.0,-0.01,0.01,0.03
0.39,-0.41,-10.0,-0.01,0.02,0.03
0.45,-0.42,-10.01,-0.01,0.01,0.02
0.5,-0.44,-9.99,-0.01,0.01,0.02
0.5,-0.44,-9.99,-0.01,0.0,0.03
0.49,-0.42,-9.98,-0.01,0.01,0.03
0.49,-0.34,-9.91,-0.01,0.0,0.03
0.44,-0.35,-9.97,-0.02,0.0,0.03
0.44,-0.35,-9.97,-0.01,0.02,0.02
0.36,-0.41,-9.97,-0.01,0.01,0.02
0.38,-0.48,-9.97,-0.01,0.01,0.03
0.44,-0.41,-10.02,-0.02,0.01,0.03
0.44,-0.41,-10.02,-0.01,0.0,0.03
0.43,-0.44,-9.91,-0.02,0.01,0.03
0.41,-0.41,-9.95,-0.01,0.0,0.02
0.41,-0.41,-9.95,-0.01,0.01,0.03
0.49,-0.42,-10.02,-0.01,0.0,0.03
0.43,-0.45,-9.95,-0.01,0.01,0.02
0.42,-0.37,-10.05,-0.01,0.01,0.02
0.42,-0.37,-10.05,-0.01,0.01,0.03
0.38,-0.45,-10.02,-0.01,0.01,0.02
0.46,-0.43,-10.03,-0.01,0.0,0.02
0.46,-0.43,-10.03,-0.01,0.01,0.02
0.48,-0.37,-10.02,-0.01,0.01,0.02
0.45,-0.37,-10.01,-0.01,0.0,0.03
0.42,-0.42,-9.97,-0.01,0.0,0.03
0.42,-0.42,-9.97,-0.01,0.0,0.02
0.44,-0.44,-9.96,-0.0,0.0,0.02
0.45,-0.39,-10.03,-0.02,0.0,0.03
0.42,-0.45,-10.0,-0.01,0.01,0.02
0.42,-0.45,-10.0,-0.01,0.01,0.03
0.47,-0.43,-9.9,-0.02,0.01,0.03
0.38,-0.36,-10.02,-0.01,0.01,0.03
0.38,-0.36,-10.02,-0.01,0.01,0.03
0.4,-0.4,-9.99,-0.01,-0.0,0.03
0.44,-0.45,-10.02,-0.01,0.02,0.02
0.41,-0.32,-9.95,-0.01,0.01,0.03
0.41,-0.32,-9.95,-0.01,0.01,0.03
0.44,-0.36,-10.0,-0.01,0.0,0.02
0.45,-0.41,-9.97,-0.02,0.01,0.02
0.48,-0.4,-9.94,-0.01,0.0,0.03
0.48,-0.4,-9.94,-0.01,0.01,0.02
0.43,-0.43,-10.04,-0.01,0.01,0.03
0.42,-0.42,-10.07,-0.01,0.0,0.03
0.42,-0.42,-10.07,-0.01,0.01,0.03
0.45,-0.42,-9.96,-0.01,0.01,0.03
0.41,-0.45,-9.96,-0.01,0.01,0.03
0.43,-0.4,-9.93,-0.01,0.01,0.02
0.43,-0.4,-9.93,-0.02,0.0,0.02
0.42,-0.4,-9.98,-0.01,0.01,0.02
0.41,-0.45,-10.0,-0.01,0.01,0.03
0.48,-0.42,-10.04,-0.01,0.0,0.02
0.48,-0.42,-10.04,-0.02,0.01,0.03
0.44,-0.42,-10.01,-0.01,0.01,0.02
0.43,-0.36,-10.04,-0.01,0.01,0.02
0.43,-0.36,-10.04,-0.01,0.01,0.03
0.46,-0.36,-10.03,-0.02,0.01,0.03
0.46,-0.45,-9.98,-0.02,0.01,0.03
0.41,-0.43,-10.03,-0.01,0.01,0.03
0.41,-0.43,-10.03,-0.01,0.01,0.03
0.42,-0.5,-10.0,-0.01,0.01,0.03
0.47,-0.37,-10.02,-0.01,0.01,0.02
0.41,-0.46,-9.97,-0.01,0.01,0.02
0.41,-0.46,-9.97,-0.01,0.01,0.03
0.42,-0.42,-9.95,-0.01,0.0,0.03
0.4,-0.43,-9.96,-0.02,0.01,0.03
0.45,-0.42,-9.93,-0.02,0.01,0.02
0.45,-0.42,-9.93,-0.01,0.01,0.02
0.45,-0.41,-10.02,-0.01,0.0,0.03
0.44,-0.42,-9.89,-0.01,0.01,0.02
0.44,-0.42,-9.89,-0.01,0.0,0.02
0.45,-0.43,-10.01,-0.01,0.0,0.03
0.49,-0.44,-10.02,-0.01,0.01,0.02
0.54,-0.42,-9.98,-0.01,0.01,0.03
0.54,-0.42,-9.98,-0.01,0.01,0.03
0.5,-0.44,-9.98,-0.01,0.01,0.03
0.46,-0.44,-9.95,-0.01,0.0,0.03
0.46,-0.44,-9.95,-0.01,0.0,0.03
0.41,-0.42,-9.93,-0.01,0.0,0.03
0.44,-0.44,-9.99,-0.01,0.0,0.03
0.46,-0.43,-9.92,-0.01,0.01,0.03
0.46,-0.43,-9.92,-0.02,0.01,0.02
0.46,-0.41,-9.95,-0.02,0.01,0.02
0.47,-0.34,-10.02,-0.01,0.01,0.03
0.4,-0.39,-10.05,-0.01,0.01,0.02
0.4,-0.39,-10.05,-0.01,0.0,0.03
0.43,-0.49,-9.95,-0.01,0.01,0.03
0.43,-0.41,-10.02,-0.01,0.01,0.03
0.48,-0.36,-10.0,-0.02,0.0,0.03
0.48,-0.36,-10.0,-0.0,0.01,0.03
0.43,-0.4,-9.95,-0.01,0.0,0.02
0.39,-0.38,-10.0,-0.01,0.01,0.03
0.39,-0.38,-10.0,-0.01,0.0,0.03
0.45,-0.43,-10.01,-0.01,0.01,0.03
0.46,-0.42,-9.94,-0.01,0.01,0.03
0.41,-0.4,-10.06,-0.01,0.01,0.03
0.41,-0.4,-10.06,-0.01,0.01,0.02
0.4,-0.36,-9.93,-0.01,0.01,0.03
0.46,-0.49,-9.94,-0.01,0.01,0.02
0.4,-0.42,-9.99,-0.01,0.01,0.03
0.4,-0.42,-9.99,-0.01,0.01,0.03
0.43,-0.42,-10.03,-0.01,0.0,0.02
0.41,-0.39,-9.92,-0.01,0.01,0.02
0.41,-0.39,-9.92,-0.01,0.01,0.03
0.46,-0.42,-10.04,-0.01,0.01,0.02
0.52,-0.46,-9.9,-0.01,0.0,0.02
0.43,-0.39,-10.07,-0.01,0.0,0.02
0.43,-0.39,-10.07,-0.02,0.01,0.03
0.48,-0.42,-10.03,-0.01,0.01,0.02
0.49,-0.39,-9.99,-0.01,0.01,0.03
0.39,-0.49,-9.94,-0.01,0.01,0.02
0.39,-0.49,-9.94,-0.01,0.01,0.03
0.47,-0.45,-10.0,-0.01,0.01,0.03
0.47,-0.47,-10.04,-0.01,0.01,0.02
0.47,-0.47,-10.04,-0.01,0.0,0.03
0.46,-0.42,-10.01,-0.02,0.01,0.03
0.41,-0.42,-9.99,-0.01,0.01,0.03
0.39,-0.39,-9.94,-0.02,0.0,0.03
0.39,-0.39,-9.94,-0.01,0.0,0.03
0.43,-0.42,-10.0,-0.01,0.01,0.02
0.43,-0.42,-9.98,-0.01,0.0,0.03
0.38,-0.45,-9.97,-0.01,0.01,0.03
0.38,-0.45,-9.97,-0.01,0.01,0.03
0.47,-0.42,-9.94,-0.01,0.01,0.03
0.46,-0.47,-10.02,-0.02,0.0,0.03
0.46,-0.47,-10.02,-0.01,0.01,0.02
0.46,-0.4,-9.91,-0.01,0.01,0.02
0.46,-0.43,-10.0,-0.01,0.0,0.03
0.34,-0.46,-9.98,-0.01,0.01,0.03
0.34,-0.46,-9.98,-0.01,0.01,0.03
0.43,-0.43,-10.01,-0.01,0.0,0.02
0.48,-0.43,-10.02,-0.01,0.0,0.02
0.51,-0.47,-10.01,-0.01,0.0,0.03
0.51,-0.47,-10.01,-0.01,0.01,0.03
0.45,-0.4,-9.99,-0.01,0.01,0.03
0.43,-0.47,-9.93,-0.01,0.01,0.02
0.43,-0.47,-9.93,-0.01,0.02,0.03
0.53,-0.43,-9.89,-0.01,0.01,0.03
0.43,-0.4,-10.02,-0.01,0.01,0.03
0.38,-0.4,-9.97,-0.02,0.01,0.03
0.38,-0.4,-9.97,-0.01,0.0,0.03
0.39,-0.34,-10.04,-0.01,0.01,0.03
0.44,-0.37,-10.01,-0.02,0.01,0.02
0.44,-0.38,-9.97,-0.02,0.0,0.03
0.44,-0.38,-9.97,-0.01,0.01,0.03
0.4,-0.38,-10.0,-0.01,0.01,0.03
0.48,-0.42,-10.04,-0.02,0.01,0.03
0.48,-0.42,-10.04,-0.01,0.01,0.02
0.43,-0.47,-9.99,-0.01,0.01,0.02
0.44,-0.39,-9.87,-0.01,0.01,0.03
0.5,-0.37,-10.0,-0.02,0.01,0.03
0.5,-0.37,-10.0,-0.02,0.01,0.02
0.42,-0.44,-9.96,-0.01,0.01,0.02
0.45,-0.36,-9.98,-0.01,0.0,0.03
0.41,-0.39,-10.02,-0.01,0.01,0.02
0.41,-0.39,-10.02,-0.01,0.01,0.03
0.4,-0.4,-9.93,-0.01,0.01,0.03
0.4,-0.41,-10.03,-0.01,0.01,0.03
0.4,-0.41,-10.03,-0.01,0.01,0.02
0.48,-0.45,-9.96,-0.01,0.0,0.03
0.45,-0.39,-9.95,-0.01,0.01,0.03
0.42,-0.46,-9.93,-0.01,0.01,0.02
0.42,-0.46,-9.93,-0.01,0.01,0.02
0.44,-0.39,-10.04,-0.01,0.02,0.03
0.44,-0.36,-9.97,-0.01,0.01,0.03
0.44,-0.43,-9.98,-0.02,0.01,0.02
0.44,-0.43,-9.98,-0.01,0.0,0.03
0.42,-0.4,-10.0,-0.01,0.01,0.03
0.52,-0.33,-9.91,-0.01,0.01,0.03
0.48,-0.41,-9.93,-0.01,0.01,0.02
0.48,-0.41,-9.93,-0.01,0.01,0.03
0.48,-0.42,-9.94,-0.02,0.02,0.03
0.48,-0.41,-10.1,-0.02,0.02,0.03
0.48,-0.41,-10.1,-0.01,0.01,0.03
0.36,-0.41,-9.98,-0.01,0.01,0.02
0.47,-0.46,-9.99,-0.01,0.01,0.03
0.46,-0.4,-10.01,-0.01,0.0,0.03
0.46,-0.4,-10.01,-0.01,0.01,0.03
0.48,-0.47,-9.95,-0.02,0.01,0.03
0.43,-0.47,-10.01,-0.01,0.01,0.02
0.43,-0.43,-9.91,-0.01,0.01,0.03
0.43,-0.43,-9.91,-0.02,0.0,0.03
0.43,-0.43,-9.95,-0.01,0.01,0.02
0.39,-0.41,-9.94,-0.01,0.01,0.02
0.39,-0.41,-9.94,-0.01,0.0,0.03
0.41,-0.41,-10.0,-0.01,0.0,0.02
0.5,-0.37,-9.96,-0.01,0.01,0.02
0.43,-0.39,-9.99,-0.01,0.01,0.02
0.43,-0.39,-9.99,-0.01,0.01,0.02
0.43,-0.39,-10.0,-0.02,0.02,0.03
0.37,-0.42,-10.0,-0.01,0.01,0.03
0.41,-0.48,-9.98,-0.01,0.01,0.02
0.41,-0.48,-9.98,-0.01,0.0,0.03
0.44,-0.39,-9.93,-0.01,0.01,0.03
0.42,-0.44,-9.99,-0.01,0.0,0.03
0.42,-0.44,-9.99,-0.01,0.01,0.02
0.43,-0.42,-9.93,-0.01,0.01,0.03
0.43,-0.41,-10.0,-0.02,0.01,0.02
0.45,-0.44,-9.98,-0.01,0.0,0.03
0.45,-0.44,-9.98,-0.01,0.01,0.03
0.48,-0.46,-10.01,-0.01,0.01,0.03
0.42,-0.41,-10.01,-0.01,0.01,0.03
0.45,-0.41,-10.03,-0.01,0.0,0.03
0.45,-0.41,-10.03,-0.01,0.0,0.02
0.47,-0.42,-9.97,-0.01,0.01,0.03
0.43,-0.36,-10.04,-0.01,0.01,0.02
0.49,-0.43,-10.03,-0.01,0.01,0.03
0.49,-0.43,-10.03,-0.01,0.01,0.02
0.4,-0.37,-9.96,-0.01,0.01,0.02
0.44,-0.38,-9.92,-0.01,0.01,0.03
0.44,-0.38,-9.92,-0.01,0.02,0.02
0.42,-0.35,-9.99,-0.01,0.0,0.03
0.43,-0.42,-10.05,-0.01,0.02,0.03
0.47,-0.41,-10.02,-0.01,0.01,0.03
0.47,-0.41,-10.02,-0.02,0.01,0.02
0.45,-0.41,-9.91,-0.01,0.01,0.02
0.44,-0.45,-10.0,-0.01,0.01,0.02
0.44,-0.45,-10.0,-0.01,0.01,0.03
0.45,-0.45,-9.96,-0.01,0.0,0.03
0.47,-0.49,-10.03,-0.01,0.01,0.02
0.4,-0.45,-9.96,-0.02,0.01,0.03
0.4,-0.45,-9.96,-0.01,0.01,0.03
0.45,-0.4,-10.02,-0.01,0.01,0.02
0.5,-0.42,-9.92,-0.01,0.02,0.03
0.49,-0.42,-9.94,-0.01,0.0,0.03
0.49,-0.42,-9.94,-0.01,0.02,0.02
0.43,-0.44,-9.97,-0.01,0.01,0.03
0.4,-0.42,-10.04,-0.02,0.0,0.02
0.4,-0.42,-10.04,-0.02,0.01,0.02
0.5,-0.4,-10.02,-0.01,0.0,0.03
0.46,-0.43,-10.01,-0.01,0.0,0.03
0.39,-0.46,-9.98,-0.02,0.0,0.02
0.39,-0.46,-9.98,-0.01,0.01,0.03
0.45,-0.39,-9.93,-0.01,0.0,0.02
0.48,-0.37,-10.03,-0.01,0.01,0.03
0.43,-0.39,-10.03,-0.02,0.02,0.03
0.43,-0.39,-10.03,-0.01,0.01,0.03
0.44,-0.39,-9.93,-0.01,0.01,0.03
0.49,-0.41,-9.98,-0.02,0.0,0.02
0.45,-0.42,-9.99,-0.01,0.01,0.02
0.45,-0.42,-9.99,-0.01,0.0,0.02
0.41,-0.45,-10.03,-0.01,0.02,0.03
0.42,-0.36,-9.99,-0.01,0.01,0.02
0.42,-0.36,-9.99,-0.01,0.0,0.02
0.43,-0.45,-9.96,-0.02,0.01,0.02
0.43,-0.44,-10.0,-0.02,0.01,0.03
0.45,-0.43,-9.94,-0.01,0.01,0.03
0.45,-0.43,-9.94,-0.01,0.01,0.03
0.43,-0.36,-9.89,-0.01,0.01,0.02
0.47,-0.41,-10.02,-0.01,0.01,0.03
0.41,-0.46,-10.06,-0.01,0.01,0.03
0.41,-0.46,-10.06,-0.01,0.01,0.03
0.49,-0.43,-9.98,-0.01,0.01,0.03
0.41,-0.45,-10.07,-0.01,0.01,0.03
0.41,-0.45,-10.07,-0.01,0.01,0.03
0.5,-0.44,-10.01,-0.01,0.01,0.04
0.46,-0.33,-9.99,-0.01,0.01,0.03
0.48,-0.41,-10.01,-0.01,0.01,0.02
0.48,-0.41,-10.01,-0.01,0.0,0.03
0.49,-0.44,-9.94,-0.01,0.0,0.03
0.42,-0.42,-9.99,-0.01,0.0,0.02
0.45,-0.39,-10.06,-0.01,0.01,0.02
0.45,-0.39,-10.06,-0.02,0.01,0.03
0.45,-0.45,-9.97,-0.01,0.01,0.03
0.42,-0.42,-9.97,-0.01,0.01,0.03
0.42,-0.42,-9.97,-0.01,0.01,0.03
0.48,-0.44,-9.97,-0.01,0.01,0.03
0.4,-0.42,-10.0,-0.01,0.01,0.03
0.5,-0.4,-9.96,-0.02,0.0,0.02
0.5,-0.4,-9.96,-0.01,0.01,0.02
0.5,-0.38,-9.94,-0.01,0.01,0.03
0.46,-0.41,-10.0,-0.01,0.0,0.03
0.42,-0.4,-9.97,-0.01,0.01,0.02
0.42,-0.4,-9.97,-0.01,0.0,0.03
0.4,-0.39,-10.06,-0.0,0.0,0.02
0.42,-0.4,-10.01,0.0,0.0,0.03
0.42,-0.4,-10.01,-0.02,0.0,0.02
0.46,-0.35,-10.01,-0.01,0.01,0.02
0.53,-0.36,-10.0,-0.01,0.01,0.03
0.41,-0.42,-9.95,-0.01,0.01,0.03
0.41,-0.42,-9.95,-0.01,0.0,0.03
0.41,-0.45,-10.01,-0.01,0.01,0.03
0.39,-0.47,-10.0,-0.01,0.0,0.03
0.39,-0.42,-10.02,-0.01,0.01,0.02
0.39,-0.42,-10.02,-0.01,0.0,0.03
0.39,-0.38,-10.01,-0.02,0.01,0.03
0.37,-0.43,-10.03,-0.01,0.01,0.02
0.37,-0.43,-10.03,-0.01,0.01,0.03
0.45,-0.4,-9.97,-0.02,0.0,0.02
0.47,-0.42,-10.01,-0.01,0.01,0.02
0.46,-0.42,-9.9,-0.01,0.01,0.03
0.46,-0.42,-9.9,-0.01,0.0,0.03
0.46,-0.39,-10.0,-0.01,0.0,0.02
0.42,-0.39,-10.0,-0.01,0.0,0.02
0.42,-0.39,-10.0,-0.01,0.01,0.03
0.47,-0.36,-10.0,-0.01,0.01,0.03
0.47,-0.46,-9.94,-0.02,0.0,0.03
0.43,-0.42,-9.98,-0.01,0.01,0.02
0.43,-0.42,-9.98,-0.01,0.01,0.02
0.49,-0.42,-9.98,-0.01,0.01,0.03
0.45,-0.42,-9.99,-0.01,0.0,0.03
0.38,-0.38,-9.88,-0.01,0.01,0.03
0.38,-0.38,-9.88,-0.01,0.0,0.03
0.39,-0.45,-9.86,-0.01,0.01,0.02
0.44,-0.42,-9.88,-0.01,0.02,0.03
0.44,-0.42,-9.88,-0.02,-0.01,0.03
0.55,-0.5,-10.0,-0.02,0.01,0.04
0.42,-0.42,-9.96,-0.01,0.01,0.02
0.44,-0.37,-9.86,-0.01,0.01,0.03
0.44,-0.37,-9.86,-0.01,0.01,0.02
0.39,-0.34,-10.05,-0.01,0.01,0.03
0.45,-0.41,-9.93,-0.01,0.0,0.03
0.52,-0.39,-10.07,-0.01,0.01,0.03
0.52,-0.39,-10.07,-0.01,0.01,0.03
0.46,-0.43,-10.02,-0.01,0.0,0.02
0.51,-0.45,-9.98,-0.01,0.0,0.03
0.42,-0.45,-10.01,-0.01,0.0,0.03
0.42,-0.45,-10.01,-0.01,0.01,0.02
0.39,-0.38,-10.01,-0.0,0.01,0.03
0.5,-0.43,-10.01,-0.02,0.01,0.02
0.5,-0.43,-10.01,-0.01,0.01,0.02
0.55,-0.37,-9.94,-0.01,0.01,0.02
0.48,-0.37,-9.97,-0.01,0.01,0.03
0.4,-0.37,-9.97,-0.02,0.01,0.03
0.4,-0.37,-9.97,-0.01,0.01,0.03
0.45,-0.44,-10.03,-0.02,0.0,0.03
0.41,-0.41,-9.99,-0.01,0.0,0.02
0.42,-0.4,-10.05,-0.01,0.01,0.03
0.42,-0.4,-10.05,-0.01,0.01,0.01
0.45,-0.4,-9.95,-0.01,0.01,0.02
0.49,-0.51,-9.92,-0.01,0.01,0.02
0.49,-0.51,-9.92,-0.01,0.01,0.02
0.39,-0.41,-9.96,-0.01,0.01,0.03
0.4,-0.44,-10.05,-0.01,0.02,0.03
0.35,-0.42,-9.96,-0.01,0.01,0.03
0.35,-0.42,-9.96,-0.01,0.0,0.02
0.37,-0.42,-9.99,-0.02,0.01,0.03
0.48,-0.42,-10.0,-0.01,0.01,0.02
0.48,-0.42,-10.0,-0.01,0.01,0.03
0.45,-0.43,-10.01,-0.01,0.0,0.02
0.42,-0.42,-9.97,-0.01,0.01,0.03
0.41,-0.42,-9.97,-0.01,0.01,0.03
0.41,-0.42,-9.97,-0.01,0.01,0.03
0.42,-0.35,-9.98,-0.01,0.01,0.03
0.43,-0.4,-10.01,-0.01,0.0,0.02
0.41,-0.39,-9.98,-0.01,0.01,0.03
0.41,-0.39,-9.98,-0.02,0.0,0.02
0.48,-0.44,-9.98,-0.02,0.0,0.02
0.43,-0.47,-9.96,-0.01,0.01,0.03
0.43,-0.47,-9.96,-0.02,0.01,0.03
0.43,-0.41,-9.95,-0.01,0.01,0.02
0.44,-0.44,-9.98,-0.01,0.01,0.02
0.42,-0.4,-9.9,-0.02,0.01,0.03
0.42,-0.4,-9.9,-0.01,0.01,0.03
0.4,-0.44,-9.97,-0.01,0.0,0.02
0.41,-0.38,-10.05,-0.01,0.01,0.02
0.49,-0.44,-9.99,-0.01,0.0,0.03
0.49,-0.44,-9.99,-0.01,0.01,0.02
0.48,-0.42,-10.01,-0.01,0.01,0.02
0.41,-0.37,-9.99,-0.01,0.01,0.03
0.41,-0.37,-9.99,-0.02,0.01,0.02
0.42,-0.4,-10.01,-0.01,0.01,0.03
0.52,-0.44,-10.0,-0.01,0.01,0.03
0.42,-0.39,-9.98,-0.01,0.01,0.03
0.42,-0.39,-9.98,-0.01,0.01,0.03
0.38,-0.37,-9.98,-0.01,0.01,0.02
0.42,-0.43,-10.0,-0.01,0.01,0.02
0.41,-0.42,-9.96,-0.01,0.01,0.03
0.41,-0.42,-9.96,-0.01,0.01,0.02
0.44,-0.38,-10.0,-0.02,0.0,0.03
0.46,-0.48,-10.07,-0.01,0.01,0.03
0.46,-0.48,-10.07,-0.02,0.0,0.03
0.35,-0.45,-10.0,-0.01,0.0,0.03
0.39,-0.44,-9.89,-0.02,0.0,0.02
0.41,-0.42,-10.04,-0.01,0.01,0.03
0.41,-0.42,-10.04,-0.01,0.0,0.03
0.46,-0.47,-10.06,-0.01,0.0,0.02
0.41,-0.42,-9.96,-0.01,0.01,0.03
0.45,-0.44,-10.0,-0.01,0.01,0.02
0.45,-0.44,-10.0,-0.0,0.01,0.02
0.43,-0.35,-9.94,-0.01,0.01,0.03
0.37,-0.38,-10.01,-0.01,0.01,0.03
0.46,-0.41,-9.95,-0.01,0.01,0.03
0.46,-0.41,-9.95,-0.01,0.01,0.02
0.45,-0.48,-9.98,-0.01,0.01,0.03
0.44,-0.43,-9.94,-0.01,0.0,0.03
0.44,-0.43,-9.94,-0.01,0.01,0.02
0.44,-0.4,-9.95,-0.01,0.01,0.03
0.47,-0.46,-9.97,-0.01,0.01,0.03
0.45,-0.38,-10.06,-0.01,0.01,0.03
0.45,-0.38,-10.06,-0.01,0.0,0.02
0.42,-0.4,-9.99,-0.01,0.01,0.03
0.43,-0.44,-9.98,-0.02,0.01,0.02
0.44,-0.47,-9.97,-0.01,0.01,0.03
0.44,-0.47,-9.97,-0.0,-0.0,0.02
0.35,-0.36,-10.04,-0.01,0.0,0.03
0.44,-0.44,-10.04,-0.01,0.01,0.03
0.44,-0.44,-10.04,-0.02,0.01,0.02
0.41,-0.42,-10.02,-0.01,0.01,0.02
0.45,-0.47,-9.99,-0.02,0.01,0.03
0.39,-0.36,-10.03,-0.01,0.01,0.03
0.39,-0.36,-10.03,-0.01,0.01,0.03
0.45,-0.4,-9.98,-0.02,0.01,0.02
0.47,-0.39,-10.0,-0.01,0.01,0.03
0.4,-0.4,-10.06,-0.02,0.0,0.03
0.4,-0.4,-10.06,-0.01,0.0,0.02
0.44,-0.39,-9.96,-0.02,0.01,0.03
0.46,-0.41,-10.0,-0.01,0.01,0.03
0.46,-0.41,-10.0,-0.01,0.0,0.03
0.44,-0.47,-10.03,-0.01,0.01,0.03
0.41,-0.47,-10.0,-0.01,0.01,0.03
0.51,-0.44,-9.99,-0.01,0.01,0.03
0.51,-0.44,-9.99,-0.02,0.01,0.02
0.43,-0.41,-10.02,-0.0,0.0,0.03
0.42,-0.45,-10.01,-0.01,0.01,0.03
0.4,-0.34,-9.98,-0.01,0.01,0.03
0.4,-0.34,-9.98,-0.0,0.01,0.03
0.39,-0.44,-10.02,-0.01,0.01,0.02
0.43,-0.45,-9.98,-0.01,0.01,0.03
0.43,-0.45,-9.98,-0.02,0.01,0.02
0.48,-0.41,-9.96,-0.01,0.01,0.03
0.39,-0.43,-9.97,-0.01,0.01,0.03
0.37,-0.44,-9.95,-0.01,0.01,0.03
0.37,-0.44,-9.95,-0.01,0.01,0.03
0.47,-0.43,-10.02,-0.02,0.01,0.03
0.48,-0.41,-9.98,-0.02,0.01,0.03
0.38,-0.39,-10.07,-0.01,0.01,0.03
0.38,-0.39,-10.07,-0.01,0.01,0.03
0.4,-0.41,-10.02,-0.01,0.01,0.02
0.44,-0.36,-9.92,-0.0,0.01,0.02
0.44,-0.36,-9.92,-0.01,0.01,0.03
0.38,-0.37,-10.0,-0.02,0.0,0.03
0.47,-0.45,-10.04,-0.01,0.0,0.03
0.39,-0.42,-9.97,-0.01,0.01,0.03
0.39,-0.42,-9.97,-0.01,0.01,0.03
0.43,-0.51,-9.97,-0.01,0.0,0.03
0.42,-0.44,-10.05,-0.0,0.0,0.03
0.42,-0.43,-10.09,-0.01,0.01,0.03
0.42,-0.43,-10.09,-0.01,0.01,0.03
0.4,-0.44,-9.96,-0.01,0.0,0.03
0.4,-0.45,-10.01,-0.01,0.0,0.02
0.4,-0.45,-10.01,-0.01,0.01,0.03
0.44,-0.44,-10.03,-0.01,0.01,0.03
0.44,-0.44,-9.98,-0.01,0.01,0.03
0.41,-0.43,-9.98,-0.01,0.01,0.02
0.41,-0.43,-9.98,-0.02,0.0,0.02
0.51,-0.43,-10.06,-0.01,0.0,0.03
0.43,-0.39,-10.02,-0.02,0.01,0.03
0.44,-0.45,-10.03,-0.01,0.0,0.03
0.44,-0.45,-10.03,-0.02,0.0,0.02
0.44,-0.43,-9.98,-0.02,0.01,0.03
0.4,-0.46,-10.02,-0.01,0.0,0.03
0.45,-0.46,-10.07,-0.01,0.0,0.03
0.45,-0.46,-10.07,-0.01,0.01,0.02
0.41,-0.43,-9.95,-0.01,0.0,0.03
0.44,-0.4,-9.99,-0.01,0.01,0.02
0.44,-0.4,-9.99,-0.01,0.02,0.02
0.45,-0.45,-9.96,-0.01,0.01,0.03
0.52,-0.48,-9.97,-0.0,0.01,0.03
0.44,-0.42,-9.97,-0.0,0.01,0.02
0.44,-0.42,-9.97,-0.01,0.01,0.03
0.42,-0.37,-9.98,-0.01,0.0,0.03
0.42,-0.41,-10.0,-0.01,0.01,0.02
0.47,-0.43,-9.97,-0.01,0.0,0.02
0.47,-0.43,-9.97,-0.01,0.01,0.03
0.43,-0.38,-10.06,-0.01,0.01,0.02
0.44,-0.37,-9.98,-0.0,0.01,0.03
0.44,-0.37,-9.98,-0.01,0.01,0.03
0.41,-0.37,-10.01,-0.01,0.01,0.03
0.42,-0.39,-9.99,-0.01,0.01,0.02
0.42,-0.39,-9.95,-0.01,0.01,0.03
0.42,-0.39,-9.95,-0.02,0.01,0.02
0.44,-0.39,-10.01,-0.01,0.01,0.03
0.43,-0.48,-9.99,-0.01,0.0,0.03
0.44,-0.43,-9.91,-0.01,0.01,0.02
0.44,-0.43,-9.91,-0.01,0.01,0.03
0.39,-0.45,-10.01,-0.01,0.01,0.02
0.45,-0.4,-9.95,-0.01,0.01,0.03
0.45,-0.4,-9.95,-0.02,0.0,0.02
0.49,-0.41,-10.04,-0.01,0.01,0.03
0.45,-0.47,-10.06,-0.01,0.01,0.03
0.5,-0.35,-10.01,-0.01,0.01,0.02
0.5,-0.35,-10.01,-0.01,0.0,0.03
0.41,-0.43,-10.03,-0.0,0.0,0.03
0.46,-0.43,-9.94,-0.01,0.01,0.03
0.4,-0.36,-9.97,-0.01,0.01,0.02
0.4,-0.36,-9.97,-0.02,0.01,0.03
0.4,-0.39,-9.94,-0.01,0.0,0.03
0.43,-0.4,-9.99,-0.01,0.0,0.02
0.43,-0.4,-9.99,-0.01,0.0,0.03
0.47,-0.34,-9.92,-0.0,0.01,0.02
0.41,-0.43,-9.92,-0.0,0.0,0.03
0.46,-0.42,-10.0,-0.01,0.01,0.03
0.46,-0.42,-10.0,-0.01,0.01,0.03
0.42,-0.41,-9.95,-0.01,0.01,0.02
0.48,-0.39,-10.03,-0.02,-0.0,0.03
0.43,-0.41,-9.98,-0.01,0.01,0.03
0.43,-0.41,-9.98,-0.01,0.01,0.03
0.43,-0.41,-10.05,-0.01,0.01,0.03
0.41,-0.45,-9.99,-0.01,0.01,0.02
0.41,-0.45,-9.99,-0.01,0.01,0.02
0.46,-0.39,-9.93,-0.0,0.01,0.02
0.37,-0.33,-9.96,-0.0,0.01,0.03
0.42,-0.38,-10.0,-0.01,0.01,0.03
0.42,-0.38,-10.0,-0.01,0.01,0.02
0.45,-0.45,-9.97,-0.01,0.01,0.02
0.5,-0.38,-10.01,-0.01,0.01,0.02
0.44,-0.41,-10.03,-0.01,0.0,0.03
0.44,-0.41,-10.03,-0.01,0.01,0.02
0.48,-0.43,-10.06,-0.01,0.01,0.02
0.44,-0.39,-9.97,-0.01,0.0,0.02
0.44,-0.39,-9.97,-0.01,0.01,0.02
0.43,-0.39,-9.95,-0.02,0.01,0.03
0.44,-0.43,-9.98,-0.01,0.01,0.02
0.44,-0.41,-9.99,-0.0,0.0,0.03
0.44,-0.41,-9.99,-0.02,0.01,0.03
0.41,-0.47,-9.95,-0.01,0.01,0.03
0.45,-0.48,-9.97,-0.02,0.01,0.02
0.51,-0.37,-10.0,-0.01,0.01,0.03
0.51,-0.37,-10.0,-0.01,0.0,0.02
0.43,-0.44,-9.91,-0.01,0.0,0.03
0.44,-0.35,-9.99,-0.01,0.0,0.02
0.44,-0.35,-9.99,-0.01,0.01,0.02
0.42,-0.46,-9.97,-0.0,0.01,0.03
0.4,-0.37,-10.01,-0.01,0.01,0.03
0.39,-0.4,-9.96,-0.02,0.01,0.03
0.39,-0.4,-9.96,-0.02,0.02,0.03
0.49,-0.43,-10.01,-0.01,0.0,0.02
0.42,-0.4,-9.98,-0.01,0.01,0.02
0.44,-0.34,-9.93,-0.01,0.0,0.02
0.44,-0.34,-9.93,-0.02,0.02,0.03
0.41,-0.43,-9.97,-0.01,-0.0,0.03
0.42,-0.44,-10.01,-0.01,0.0,0.03
0.46,-0.43,-9.98,-0.01,0.0,0.03
0.46,-0.43,-9.98,-0.0,0.01,0.03
0.42,-0.37,-9.94,-0.01,0.0,0.02
0.42,-0.45,-9.94,-0.01,0.01,0.02
0.42,-0.45,-9.94,-0.01,0.01,0.03
0.46,-0.37,-9.99,-0.02,0.01,0.03
0.36,-0.42,-9.94,-0.01,0.0,0.03
0.37,-0.44,-10.0,-0.01,0.01,0.02
0.37,-0.44,-10.0,-0.01,0.01,0.02
0.47,-0.46,-10.03,-0.01,0.01,0.02
0.47,-0.44,-9.98,-0.01,0.02,0.03
0.49,-0.4,-10.02,-0.01,0.01,0.04
0.49,-0.4,-10.02,-0.01,0.01,0.04
0.46,-0.43,-9.89,-0.0,0.0,0.02
0.42,-0.37,-10.07,-0.01,0.01,0.03
0.42,-0.37,-10.07,-0.01,0.0,0.03
0.39,-0.44,-10.01,-0.01,0.01,0.03
0.4,-0.4,-9.93,-0.01,0.0,0.03
0.43,-0.39,-10.0,-0.01,0.0,0.03
0.43,-0.39,-10.0,-0.01,0.01,0.02
0.48,-0.38,-10.0,-0.02,0.01,0.02
0.5,-0.44,-9.97,-0.01,0.01,0.03
0.35,-0.43,-9.95,-0.01,0.01,0.02
0.35,-0.43,-9.95,-0.0,0.01,0.03
0.49,-0.49,-10.03,-0.01,0.01,0.02
0.48,-0.38,-10.06,-0.01,0.01,0.03
0.48,-0.38,-10.06,-0.01,0.01,0.03
0.41,-0.41,-9.99,-0.01,0.01,0.03
0.42,-0.39,-9.93,-0.01,0.01,0.03
0.47,-0.39,-10.01,-0.01,0.01,0.03
0.47,-0.39,-10.01,-0.01,0.0,0.02
0.47,-0.45,-9.96,-0.01,0.01,0.03
0.44,-0.4,-10.0,-0.02,0.0,0.03
0.42,-0.44,-10.0,-0.01,0.02,0.02
0.42,-0.44,-10.0,-0.01,0.01,0.03
0.46,-0.4,-9.98,-0.01,0.01,0.03
0.36,-0.45,-9.95,-0.01,0.01,0.03
0.36,-0.45,-9.95,-0.01,0.01,0.03
0.4,-0.46,-10.05,-0.01,0.01,0.03
0.45,-0.44,-9.99,-0.01,0.01,0.03
0.49,-0.46,-9.9,-0.01,0.01,0.03
0.49,-0.46,-9.9,-0.01,0.01,0.03
0.45,-0.36,-9.97,-0.01,0.01,0.03
0.44,-0.34,-10.04,-0.01,0.01,0.03
0.36,-0.44,-9.9,-0.01,0.01,0.03
0.36,-0.44,-9.9,-0.01,0.0,0.03
0.36,-0.44,-10.03,-0.01,0.01,0.02
0.4,-0.41,-9.95,-0.01,0.01,0.03
0.4,-0.41,-9.95,-0.01,0.01,0.03
0.51,-0.4,-9.97,-0.01,0.01,0.02
0.58,-0.44,-10.02,-0.01,0.01,0.03
0.5,-0.4,-9.97,-0.01,0.01,0.02
0.5,-0.4,-9.97,-0.01,0.01,0.02
0.46,-0.39,-10.04,-0.01,0.01,0.02
0.34,-0.41,-9.87,-0.01,0.01,0.02
0.34,-0.39,-9.97,-0.01,0.0,0.02
0.34,-0.39,-9.97,-0.01,0.0,0.02
0.48,-0.4,-9.97,-0.01,0.01,0.03
0.53,-0.42,-10.07,-0.02,0.01,0.03
0.53,-0.42,-10.07,-0.01,0.0,0.03
0.42,-0.38,-9.91,-0.01,0.01,0.02
0.51,-0.43,-9.94,-0.01,0.01,0.02
0.44,-0.44,-10.0,-0.01,0.01,0.03
0.44,-0.44,-10.0,-0.01,0.01,0.02
0.45,-0.41,-9.98,-0.01,0.01,0.03
0.49,-0.37,-9.98,-0.01,0.01,0.03
0.46,-0.4,-9.94,-0.01,0.01,0.02
0.46,-0.4,-9.94,-0.01,0.01,0.03
0.45,-0.49,-9.93,-0.01,0.01,0.02
0.44,-0.42,-10.02,-0.01,0.01,0.03
0.43,-0.42,-9.94,-0.01,0.01,0.02
0.43,-0.42,-9.94,-0.01,0.0,0.03
0.46,-0.45,-9.94,-0.01,0.01,0.03
0.42,-0.4,-9.99,-0.01,0.01,0.03
0.42,-0.4,-9.99,-0.01,0.01,0.03
0.43,-0.38,-10.07,-0.02,0.01,0.03
0.37,-0.35,-9.96,-0.01,0.01,0.02
0.41,-0.42,-10.01,-0.01,0.01,0.03
0.41,-0.42,-10.01,-0.0,0.01,0.02
0.42,-0.45,-9.99,-0.01,0.01,0.02
0.43,-0.43,-10.03,-0.01,0.0,0.03
0.43,-0.45,-10.0,-0.01,0.0,0.03
0.43,-0.45,-10.0,-0.02,0.01,0.03
0.34,-0.34,-9.96,-0.01,0.01,0.03
0.43,-0.37,-10.03,-0.01,0.01,0.02
0.43,-0.37,-10.03,-0.01,0.01,0.03
0.45,-0.5,-9.93,-0.01,0.01,0.02
0.45,-0.41,-9.94,-0.02,0.01,0.03
0.44,-0.38,-9.9,-0.01,0.01,0.03
0.44,-0.38,-9.9,-0.01,0.01,0.03
0.44,-0.42,-9.96,-0.01,0.01,0.03
0.46,-0.34,-9.92,-0.01,0.01,0.03
0.45,-0.45,-9.99,-0.01,0.01,0.03
0.45,-0.45,-9.99,-0.02,0.01,0.03
0.43,-0.36,-10.0,-0.02,0.01,0.03
0.43,-0.4,-9.99,-0.01,0.01,0.03
0.43,-0.4,-9.99,-0.02,0.0,0.01
0.49,-0.43,-10.05,-0.01,0.01,0.03
0.4,-0.44,-9.91,-0.01,0.01,0.02
0.39,-0.46,-9.95,-0.01,0.0,0.02
0.39,-0.46,-9.95,-0.01,0.01,0.03
0.42,-0.42,-10.01,-0.01,0.0,0.02
0.47,-0.46,-9.97,-0.01,0.01,0.02
0.49,-0.41,-10.01,-0.01,0.01,0.02
0.49,-0.41,-10.01,-0.01,0.0,0.02
0.44,-0.42,-9.98,-0.01,0.01,0.02
0.4,-0.34,-9.92,-0.01,0.01,0.02
0.4,-0.34,-9.92,-0.01,0.0,0.03
0.47,-0.52,-9.88,-0.01,0.0,0.03
0.43,-0.42,-10.15,-0.02,0.02,0.02
0.48,-0.35,-10.01,-0.02,0.01,0.03
0.48,-0.35,-10.01,-0.01,0.01,0.02
0.47,-0.44,-10.07,-0.01,0.01,0.03
0.48,-0.48,-10.03,-0.01,0.01,0.03
0.44,-0.36,-9.97,-0.01,0.01,0.02
0.44,-0.36,-9.97,-0.02,0.01,0.02
0.47,-0.35,-9.99,-0.0,0.01,0.03
0.41,-0.34,-9.92,-0.01,0.01,0.02
0.41,-0.34,-9.92,-0.01,0.02,0.02
0.47,-0.44,-10.01,-0.01,0.01,0.03
0.47,-0.47,-9.92,-0.01,0.01,0.03
0.42,-0.47,-9.92,-0.01,0.0,0.02
0.42,-0.47,-9.92,-0.02,0.01,0.03
0.49,-0.42,-9.89,-0.01,0.0,0.03
0.48,-0.4,-10.02,-0.01,0.01,0.03
0.43,-0.41,-9.99,-0.01,0.01,0.04
0.43,-0.41,-9.99,-0.02,0.01,0.02
0.41,-0.37,-9.97,-0.01,0.01,0.03
0.42,-0.41,-9.99,-0.01,0.01,0.03
0.46,-0.46,-10.03,-0.01,0.01,0.02
0.46,-0.46,-10.03,-0.01,0.01,0.03
0.45,-0.44,-9.98,-0.01,0.01,0.03
0.44,-0.36,-10.0,-0.01,0.01,0.03
0.44,-0.36,-10.0,-0.01,0.01,0.02
0.45,-0.38,-9.96,-0.01,0.01,0.02
0.43,-0.44,-9.86,-0.01,0.01,0.02
0.42,-0.34,-9.99,-0.01,0.01,0.03
0.42,-0.34,-9.99,-0.01,0.01,0.03
0.4,-0.37,-9.99,-0.01,0.0,0.03
0.42,-0.44,-10.06,-0.01,0.01,0.03
0.39,-0.45,-10.05,-0.01,0.01,0.03
0.39,-0.45,-10.05,-0.01,0.01,0.02
0.43,-0.48,-10.0,-0.01,0.01,0.02
0.5,-0.46,-9.95,-0.01,0.0,0.02
0.5,-0.46,-9.95,-0.01,0.0,0.03
0.5,-0.34,-9.91,-0.02,0.0,0.03
0.49,-0.45,-10.04,-0.02,0.01,0.03
0.38,-0.4,-9.97,-0.01,0.01,0.03
0.38,-0.4,-9.97,-0.01,0.01,0.03
0.37,-0.42,-9.95,-0.01,0.0,0.03
0.36,-0.48,-9.91,-0.01,0.02,0.03
0.36,-0.48,-9.91,-0.01,0.01,0.03
0.51,-0.42,-10.06,-0.01,0.01,0.03
0.4,-0.32,-10.01,-0.01,0.01,0.03
0.43,-0.39,-9.98,-0.01,0.0,0.03
0.43,-0.39,-9.98,-0.02,0.0,0.02
0.42,-0.42,-10.02,-0.01,0.0,0.03
0.45,-0.51,-10.07,-0.01,0.01,0.02
0.4,-0.43,-9.94,-0.01,0.01,0.03
0.4,-0.43,-9.94,-0.01,0.01,0.02
0.44,-0.36,-9.94,-0.01,0.02,0.02
0.42,-0.43,-9.98,-0.01,0.01,0.02
0.42,-0.43,-9.98,-0.01,0.0,0.03
0.44,-0.41,-10.0,-0.0,0.01,0.02
0.49,-0.39,-9.94,-0.01,0.01,0.02
0.46,-0.38,-10.02,-0.01,0.0,0.03
0.46,-0.38,-10.02,-0.01,0.01,0.03
0.43,-0.4,-10.03,-0.0,0.01,0.02
0.33,-0.38,-9.96,-0.01,0.01,0.03
0.44,-0.4,-9.95,-0.01,0.01,0.02
0.44,-0.4,-9.95,-0.0,0.01,0.03
0.45,-0.43,-10.03,-0.01,0.0,0.03
0.45,-0.54,-9.98,-0.01,0.01,0.03
0.45,-0.54,-9.98,-0.01,0.01,0.03
0.41,-0.45,-10.05,-0.01,0.0,0.02
0.42,-0.42,-10.04,-0.01,0.01,0.02
0.46,-0.37,-10.05,-0.01,0.01,0.02
0.46,-0.37,-10.05,-0.01,0.0,0.02
0.46,-0.39,-10.0,-0.01,0.0,0.03
0.43,-0.43,-10.0,-0.01,0.01,0.03
0.42,-0.47,-9.99,-0.01,0.01,0.03
0.42,-0.47,-9.99,-0.01,0.01,0.03
0.43,-0.4,-10.0,-0.01,0.01,0.03
0.38,-0.43,-10.02,-0.01,0.0,0.03
0.37,-0.38,-9.96,-0.01,0.01,0.03
0.37,-0.38,-9.96,-0.01,0.01,0.03
0.5,-0.44,-9.98,-0.01,0.01,0.03
0.45,-0.42,-10.03,-0.01,0.01,0.03
0.45,-0.42,-10.03,-0.01,0.0,0.03
0.46,-0.41,-9.97,-0.01,0.01,0.03
0.42,-0.39,-10.04,-0.01,0.01,0.02
0.4,-0.38,-9.93,-0.01,0.01,0.03
0.4,-0.38,-9.93,-0.01,0.01,0.03
0.43,-0.38,-10.04,-0.01,0.01,0.03
0.5,-0.44,-9.99,-0.01,0.01,0.03
0.48,-0.38,-9.99,-0.01,0.0,0.03
0.48,-0.38,-9.99,-0.01,0.01,0.04
0.4,-0.41,-9.98,-0.01,0.01,0.03
0.49,-0.39,-10.04,-0.01,0.01,0.03
0.49,-0.39,-10.04,-0.01,0.01,0.04
0.43,-0.51,-9.96,-0.01,0.01,0.03
0.38,-0.41,-9.92,-0.01,0.01,0.03
0.39,-0.48,-9.97,-0.01,0.0,0.02
0.39,-0.48,-9.97,-0.01,0.0,0.03
0.43,-0.43,-9.99,-0.01,0.01,0.02
0.43,-0.39,-10.04,-0.01,0.01,0.03
0.44,-0.47,-10.05,-0.02,0.01,0.02
0.44,-0.47,-10.05,-0.01,0.01,0.03
0.44,-0.38,-9.97,-0.01,0.0,0.03
0.4,-0.45,-9.96,-0.01,0.01,0.02
0.4,-0.45,-9.96,-0.01,0.0,0.02
0.41,-0.39,-10.01,-0.01,0.01,0.03
0.42,-0.41,-10.04,-0.01,0.02,0.03
0.42,-0.4,-10.0,-0.01,0.0,0.03
0.42,-0.4,-10.0,-0.01,0.01,0.03
0.45,-0.38,-9.99,-0.02,0.01,0.03
0.45,-0.43,-10.04,-0.01,-0.0,0.02
0.37,-0.44,-10.09,-0.01,0.0,0.03
0.37,-0.44,-10.09,-0.01,0.01,0.03
0.42,-0.45,-10.02,-0.01,0.01,0.02
0.43,-0.39,-9.98,-0.01,-0.0,0.02
0.43,-0.39,-9.98,-0.01,0.01,0.02
0.43,-0.4,-10.08,-0.01,0.02,0.02
0.44,-0.36,-10.08,-0.01,0.01,0.03
0.41,-0.4,-10.09,-0.01,0.01,0.03
0.41,-0.4,-10.09,-0.01,0.0,0.02
0.37,-0.39,-9.99,-0.01,0.01,0.02
0.41,-0.39,-9.97,-0.01,0.01,0.03
0.51,-0.39,-9.94,-0.01,0.01,0.02
0.51,-0.39,-9.94,-0.01,0.0,0.03
0.45,-0.37,-10.02,-0.0,0.01,0.02
0.42,-0.38,-10.0,-0.01,0.01,0.03
0.41,-0.44,-10.02,-0.01,0.01,0.03
0.41,-0.44,-10.02,-0.01,0.01,0.03
0.48,-0.47,-10.0,-0.01,0.01,0.03
0.37,-0.4,-9.96,-0.01,0.0,0.03
0.37,-0.4,-9.96,-0.01,0.01,0.02
0.47,-0.47,-9.95,-0.01,0.0,0.03
0.45,-0.45,-10.04,-0.01,0.01,0.02
0.44,-0.47,-9.97,-0.01,0.01,0.03
0.44,-0.47,-9.97,-0.01,0.0,0.03
0.39,-0.45,-9.99,-0.02,0.0,0.03
0.37,-0.38,-9.92,-0.01,0.01,0.02
0.49,-0.47,-10.07,-0.01,0.02,0.03
0.49,-0.47,-10.07,-0.01,0.01,0.02
0.48,-0.37,-9.92,-0.01,0.01,0.02
0.37,-0.34,-9.96,-0.01,0.0,0.03
0.37,-0.34,-9.96,-0.02,0.01,0.02
0.46,-0.4,-10.07,-0.01,0.0,0.02
0.43,-0.4,-10.06,-0.01,0.0,0.02
0.48,-0.43,-10.08,-0.01,0.02,0.02
0.48,-0.43,-10.08,-0.01,0.01,0.03
0.43,-0.42,-9.98,-0.01,0.01,0.02
0.41,-0.42,-10.01,-0.01,0.01,0.03
0.37,-0.36,-10.0,-0.01,0.02,0.02
0.37,-0.36,-10.0,-0.01,0.0,0.03
0.38,-0.43,-10.0,-0.01,0.01,0.03
0.54,-0.45,-10.0,-0.01,0.0,0.02
0.47,-0.41,-10.02,-0.02,0.01,0.03
0.47,-0.41,-10.02,-0.01,0.01,0.03
0.44,-0.48,-9.94,-0.01,0.0,0.03
0.36,-0.38,-9.94,-0.01,0.01,0.03
0.47,-0.42,-10.03,-0.01,0.01,0.03
0.47,-0.42,-10.03,-0.01,0.0,0.03
0.43,-0.41,-9.98,-0.01,0.01,0.03
0.43,-0.43,-9.99,-0.01,0.01,0.03
0.45,-0.44,-9.89,-0.01,0.02,0.02
0.45,-0.44,-9.89,-0.01,0.0,0.02
0.51,-0.37,-9.91,-0.02,0.01,0.02
0.45,-0.41,-9.93,-0.02,0.01,0.03
0.5,-0.42,-10.07,-0.01,0.01,0.03
0.5,-0.42,-10.07,-0.01,0.01,0.03
0.46,-0.47,-10.07,-0.01,0.01,0.03
0.48,-0.32,-9.96,-0.01,0.0,0.01
0.48,-0.32,-9.96,-0.01,0.01,0.03
0.41,-0.39,-9.96,-0.01,0.0,0.03
0.41,-0.39,-10.01,-0.01,0.0,0.03
0.4,-0.5,-10.03,-0.01,0.01,0.03
0.4,-0.5,-10.03,-0.02,0.0,0.02
0.5,-0.42,-10.0,-0.01,0.01,0.03
0.49,-0.33,-10.05,-0.01,0.01,0.03
0.45,-0.3,-10.07,-0.01,0.01,0.02
0.45,-0.3,-10.07,-0.0,0.01,0.03
0.48,-0.31,-9.97,-0.02,0.01,0.03
0.41,-0.48,-10.05,-0.01,0.01,0.02
0.41,-0.48,-10.05,-0.0,0.01,0.03
0.42,-0.53,-9.93,-0.02,0.01,0.03
0.44,-0.47,-10.03,-0.01,0.01,0.03
0.46,-0.31,-10.0,-0.01,-0.01,0.03
0.46,-0.31,-10.0,-0.01,0.02,0.03
0.43,-0.29,-9.9,-0.01,-0.01,0.03
0.46,-0.41,-9.89,-0.02,0.0,0.03
0.51,-0.56,-9.99,-0.01,0.0,0.03
0.51,-0.56,-9.99,-0.01,0.0,0.03
0.39,-0.48,-9.95,-0.01,0.02,0.03
0.36,-0.37,-9.95,-0.01,0.0,0.03
0.36,-0.37,-9.95,-0.01,0.01,0.03
0.4,-0.28,-9.96,-0.01,0.01,0.02
0.51,-0.36,-10.01,-0.0,0.01,0.03
0.57,-0.4,-10.01,-0.02,0.01,0.03
0.57,-0.4,-10.01,-0.01,0.01,0.03
0.49,-0.44,-10.0,-0.01,0.01,0.02
0.43,-0.41,-10.04,-0.01,0.01,0.03
0.4,-0.45,-9.95,-0.02,0.0,0.03
0.4,-0.45,-9.95,-0.01,0.0,0.02
0.39,-0.38,-9.99,-0.01,0.01,0.03
0.38,-0.42,-10.03,-0.01,0.01,0.02
0.38,-0.42,-10.03,-0.01,0.0,0.03
0.39,-0.41,-9.99,-0.01,0.02,0.02
0.44,-0.49,-10.05,-0.01,0.01,0.03
0.47,-0.42,-10.04,-0.01,0.01,0.03
0.47,-0.42,-10.04,-0.01,0.01,0.02
0.45,-0.43,-9.94,-0.02,0.01,0.02
0.44,-0.29,-10.02,-0.0,0.01,0.03
0.43,-0.26,-10.06,-0.01,0.01,0.02
0.43,-0.26,-10.06,-0.01,0.01,0.02
0.48,-0.45,-10.04,-0.01,0.0,0.02
0.47,-0.57,-10.01,-0.01,0.0,0.02
0.47,-0.57,-10.01,-0.02,0.01,0.03
0.43,-0.56,-9.99,-0.01,0.01,0.03
0.43,-0.33,-10.02,-0.01,-0.0,0.03
0.5,-0.28,-10.01,-0.01,0.01,0.03
0.5,-0.28,-10.01,-0.01,0.01,0.03
0.44,-0.33,-10.0,-0.01,0.0,0.02
0.36,-0.5,-9.95,-0.0,0.01,0.03
0.48,-0.55,-9.92,-0.01,0.0,0.02
0.48,-0.55,-9.92,-0.01,0.01,0.02
0.53,-0.54,-9.96,-0.01,0.01,0.02
0.44,-0.39,-10.01,-0.01,0.02,0.03
0.44,-0.39,-10.01,-0.01,0.01,0.03
0.54,-0.23,-10.04,-0.01,0.01,0.03
0.48,-0.35,-9.98,-0.01,0.01,0.03
0.44,-0.41,-10.02,-0.01,0.01,0.03
0.44,-0.41,-10.02,-0.01,0.01,0.03
0.42,-0.45,-9.99,-0.01,0.01,0.03
0.38,-0.41,-9.88,-0.0,0.0,0.02
0.43,-0.41,-9.87,-0.01,0.01,0.02
0.43,-0.41,-9.87,-0.01,0.02,0.02
0.44,-0.4,-10.0,-0.01,0.0,0.03
0.54,-0.47,-9.99,-0.01,0.02,0.02
0.54,-0.47,-9.99,-0.01,0.0,0.02
0.46,-0.44,-10.06,-0.01,0.01,0.03
0.42,-0.41,-9.96,-0.01,0.01,0.03
0.34,-0.34,-9.92,-0.01,0.01,0.02
0.34,-0.34,-9.92,-0.01,0.01,0.03
0.41,-0.39,-10.05,-0.01,0.0,0.03
0.41,-0.42,-10.02,-0.01,0.0,0.03
0.41,-0.42,-10.02,-0.0,0.01,0.02
0.51,-0.45,-9.95,-0.01,0.0,0.03
0.52,-0.48,-9.95,-0.02,0.0,0.03
0.43,-0.46,-9.95,-0.01,0.01,0.03
0.43,-0.46,-9.95,-0.01,0.01,0.03
0.45,-0.39,-9.94,-0.01,0.01,0.03
0.41,-0.33,-10.04,-0.01,0.0,0.03
0.36,-0.37,-10.01,-0.01,0.01,0.02
0.36,-0.37,-10.01,-0.01,0.01,0.03
0.44,-0.39,-9.87,-0.01,0.02,0.02
0.48,-0.46,-9.95,-0.01,0.01,0.03
0.48,-0.46,-9.95,-0.01,0.01,0.02
0.46,-0.43,-9.94,-0.02,0.0,0.03
0.42,-0.43,-9.9,-0.01,0.01,0.02
0.5,-0.44,-9.99,-0.01,0.01,0.02
0.5,-0.44,-9.99,-0.02,0.01,0.02
0.43,-0.42,-10.0,-0.01,0.01,0.03
0.41,-0.38,-10.02,-0.01,0.0,0.02
0.44,-0.47,-9.95,-0.01,0.01,0.03
0.44,-0.47,-9.95,-0.01,0.01,0.02
0.43,-0.44,-9.93,-0.01,0.02,0.02
0.42,-0.46,-10.03,-0.01,0.02,0.03
0.42,-0.46,-10.03,-0.01,0.01,0.03
0.39,-0.43,-9.97,-0.01,0.0,0.02
0.48,-0.39,-10.02,-0.01,0.01,0.03
0.43,-0.48,-10.04,-0.01,0.01,0.03
0.43,-0.48,-10.04,-0.01,0.01,0.03
0.44,-0.46,-9.95,-0.01,-0.0,0.03
0.41,-0.44,-10.05,-0.01,0.01,0.03
0.48,-0.41,-9.99,-0.01,0.01,0.03
0.48,-0.41,-9.99,-0.01,0.01,0.02
0.39,-0.44,-10.06,-0.01,0.0,0.03
0.41,-0.44,-10.01,-0.01,0.01,0.03
0.41,-0.44,-10.01,-0.01,0.0,0.02
0.41,-0.34,-10.06,-0.02,0.01,0.03
0.48,-0.4,-9.95,-0.01,0.01,0.02
0.53,-0.44,-9.86,-0.01,0.0,0.03
0.53,-0.44,-9.86,-0.01,0.0,0.02
0.41,-0.39,-9.98,-0.01,0.0,0.03
0.45,-0.47,-10.06,-0.01,0.01,0.02
0.34,-0.34,-10.01,-0.01,0.01,0.03
0.34,-0.34,-10.01,-0.01,-0.0,0.03
0.38,-0.46,-9.97,-0.01,0.01,0.03
0.36,-0.42,-10.0,-0.01,0.01,0.02
0.36,-0.42,-10.0,-0.01,0.01,0.03
0.49,-0.44,-9.95,-0.01,0.01,0.03
0.44,-0.34,-10.0,-0.01,0.01,0.03
0.5,-0.36,-9.94,-0.01,0.0,0.03
0.5,-0.36,-9.94,-0.01,0.01,0.03
0.38,-0.4,-10.02,-0.01,0.01,0.02
0.4,-0.39,-10.07,-0.01,0.01,0.03
0.36,-0.49,-9.92,-0.01,0.0,0.02
0.36,-0.49,-9.92,-0.02,0.0,0.03
0.47,-0.39,-10.07,-0.01,0.01,0.03
0.44,-0.39,-9.95,-0.01,0.01,0.03
0.44,-0.39,-9.95,-0.01,0.0,0.03
0.4,-0.34,-9.99,-0.01,0.01,0.02
0.39,-0.41,-10.05,-0.01,0.02,0.02
0.45,-0.4,-9.91,-0.01,0.01,0.02
0.45,-0.4,-9.91,-0.01,0.0,0.02
0.4,-0.51,-10.04,-0.01,0.01,0.02
0.41,-0.43,-9.93,-0.01,0.01,0.03
0.41,-0.42,-9.99,-0.01,-0.0,0.03
0.41,-0.42,-9.99,-0.01,0.01,0.03
0.48,-0.41,-9.99,-0.02,0.01,0.03
0.42,-0.4,-10.02,-0.01,0.01,0.03
0.42,-0.4,-10.02,-0.01,-0.0,0.02
0.43,-0.41,-9.99,-0.01,0.0,0.02
0.41,-0.45,-9.85,-0.02,0.01,0.02
0.37,-0.42,-10.02,-0.01,0.01,0.02
0.37,-0.42,-10.02,-0.01,0.02,0.02
0.43,-0.43,-10.07,-0.01,0.01,0.03
0.45,-0.45,-10.0,-0.01,0.01,0.02
0.45,-0.35,-9.95,-0.01,0.0,0.02
0.45,-0.35,-9.95,-0.01,0.0,0.03
0.39,-0.47,-9.95,-0.0,0.0,0.03
0.43,-0.42,-9.96,-0.01,0.01,0.03
0.43,-0.42,-9.96,-0.01,0.01,0.03
0.45,-0.37,-10.0,-0.01,0.01,0.02
0.45,-0.4,-10.01,-0.01,0.0,0.02
0.41,-0.43,-9.93,-0.01,0.01,0.03
0.41,-0.43,-9.93,-0.01,0.0,0.03
0.4,-0.4,-10.04,-0.01,0.01,0.03
0.37,-0.38,-9.95,-0.01,0.01,0.02
0.33,-0.47,-10.05,-0.01,0.01,0.02
0.33,-0.47,-10.05,-0.01,0.0,0.02
0.38,-0.48,-9.91,-0.0,0.0,0.02
0.54,-0.45,-10.02,-0.01,0.0,0.03
0.55,-0.38,-9.96,-0.01,0.01,0.03
0.55,-0.38,-9.96,-0.01,0.0,0.02
0.58,-0.4,-10.24,-0.01,-0.0,0.03
0.46,-0.4,-9.94,-0.02,0.01,0.03
0.46,-0.4,-9.94,-0.01,0.01,0.02
0.41,-0.46,-9.99,-0.01,0.01,0.03
0.37,-0.6,-9.95,-0.01,0.0,0.03
0.36,-0.45,-9.94,-0.01,0.01,0.03
0.36,-0.45,-9.94,-0.02,0.02,0.03
0.43,-0.25,-10.07,-0.01,0.0,0.02
0.52,-0.3,-10.02,-0.01,0.01,0.02
0.47,-0.38,-9.93,-0.01,0.01,0.02
0.47,-0.38,-9.93,-0.0,0.02,0.02
0.46,-0.58,-9.94,-0.02,0.01,0.02
0.49,-0.55,-10.04,-0.01,0.01,0.03
0.49,-0.55,-10.04,-0.02,0.01,0.02
0.41,-0.45,-9.91,-0.02,0.01,0.04
0.42,-0.26,-10.02,-0.02,0.0,0.03
0.42,-0.35,-9.94,-0.01,0.02,0.03
0.42,-0.35,-9.94,-0.01,0.01,0.02
0.43,-0.41,-9.99,-0.01,0.01,0.02
0.46,-0.47,-9.95,-0.01,0.01,0.02
0.33,-0.47,-9.93,-0.01,0.01,0.03
0.33,-0.47,-9.93,-0.01,0.02,0.02
0.42,-0.4,-10.06,-0.01,0.0,0.03
0.42,-0.34,-10.02,-0.01,0.02,0.02
0.42,-0.34,-10.02,-0.0,0.01,0.03
0.54,-0.47,-10.01,-0.01,0.0,0.03
0.54,-0.4,-10.11,-0.01,0.01,0.03
0.4,-0.43,-10.0,-0.01,0.01,0.02
0.4,-0.43,-10.0,-0.01,0.01,0.03
0.37,-0.47,-10.01,-0.01,0.01,0.02
0.43,-0.42,-10.0,-0.02,0.01,0.03
0.39,-0.33,-9.92,-0.02,0.0,0.03
0.39,-0.33,-9.92,-0.01,0.01,0.03
0.43,-0.38,-10.03,-0.01,0.01,0.02
0.49,-0.43,-9.97,-0.02,-0.0,0.02
0.49,-0.43,-9.97,-0.01,0.01,0.02
0.48,-0.51,-9.95,-0.01,0.0,0.03
0.4,-0.4,-9.96,-0.01,0.0,0.03
0.33,-0.36,-9.99,-0.01,0.01,0.03
0.33,-0.36,-9.99,-0.01,0.01,0.02
0.39,-0.39,-10.04,-0.01,0.0,0.03
0.39,-0.4,-10.0,-0.01,0.01,0.02
0.42,-0.43,-10.08,-0.02,0.0,0.03
0.42,-0.43,-10.08,-0.01,0.01,0.02
0.44,-0.44,-9.93,-0.01,0.01,0.02
0.42,-0.45,-10.03,-0.01,0.01,0.03
0.42,-0.45,-10.03,-0.01,0.01,0.02
0.38,-0.36,-10.05,-0.01,0.0,0.03
0.34,-0.42,-9.98,-0.0,0.01,0.03
0.46,-0.44,-10.0,-0.01,0.01,0.02
0.46,-0.44,-10.0,-0.01,0.0,0.03
0.45,-0.39,-10.0,-0.01,0.01,0.03
0.48,-0.41,-10.03,-0.01,0.0,0.02
0.45,-0.49,-10.01,-0.01,0.01,0.03
0.45,-0.49,-10.01,-0.01,0.01,0.03
0.45,-0.48,-10.0,-0.01,0.01,0.03
0.39,-0.4,-9.93,-0.02,0.01,0.02
0.39,-0.4,-9.93,-0.0,0.01,0.03
0.42,-0.4,-9.94,-0.01,0.01,0.02
0.51,-0.37,-10.07,-0.01,0.0,0.03
0.46,-0.45,-9.89,-0.01,0.0,0.03
0.46,-0.45,-9.89,-0.01,0.02,0.03
0.36,-0.48,-10.06,-0.01,0.01,0.02
0.38,-0.38,-10.07,-0.01,0.01,0.02
0.41,-0.44,-9.96,-0.01,0.0,0.03
0.41,-0.44,-9.96,-0.01,0.01,0.02
0.47,-0.38,-10.14,-0.01,0.02,0.02
0.52,-0.46,-9.96,-0.01,0.01,0.03
0.52,-0.46,-9.96,-0.01,0.01,0.03
0.53,-0.4,-10.04,-0.01,0.0,0.03
0.4,-0.31,-10.09,-0.01,0.01,0.03
0.36,-0.4,-10.05,-0.02,0.01,0.03
0.36,-0.4,-10.05,-0.01,0.01,0.03
0.29,-0.45,-10.01,-0.01,0.01,0.02
0.41,-0.47,-10.01,-0.01,0.01,0.04
0.49,-0.39,-10.05,-0.01,-0.0,0.02
0.49,-0.39,-10.05,-0.01,0.01,0.02
0.56,-0.39,-9.96,-0.02,0.01,0.03
0.52,-0.36,-9.97,-0.01,0.0,0.03
0.52,-0.36,-9.97,-0.02,0.02,0.02
0.29,-0.39,-10.0,-0.02,0.01,0.02
0.32,-0.42,-9.96,-0.01,0.0,0.03
0.29,-0.44,-10.03,-0.02,0.01,0.03
0.29,-0.44,-10.03,-0.01,0.01,0.03
0.46,-0.44,-9.96,-0.01,0.01,0.03
0.47,-0.46,-10.04,-0.01,0.01,0.02
0.48,-0.39,-9.9,-0.01,0.0,0.03
0.48,-0.39,-9.9,-0.01,0.0,0.02
0.41,-0.41,-9.96,-0.01,0.01,0.03
0.34,-0.4,-9.95,-0.01,0.01,0.02
0.35,-0.45,-10.07,-0.01,0.01,0.03
0.35,-0.45,-10.07,-0.02,0.01,0.03
0.39,-0.45,-9.9,-0.01,0.01,0.03
0.5,-0.4,-9.95,-0.01,0.0,0.03
0.49,-0.4,-9.98,-0.01,0.01,0.02
0.49,-0.4,-9.98,-0.01,0.01,0.03
0.46,-0.44,-9.99,-0.01,0.01,0.02
0.35,-0.41,-9.95,-0.0,0.01,0.03
0.34,-0.41,-10.02,-0.01,0.01,0.03
0.34,-0.41,-10.02,-0.01,0.01,0.03
0.35,-0.45,-10.04,-0.0,0.01,0.03
0.51,-0.37,-9.96,-0.01,0.01,0.03
0.55,-0.49,-9.98,-0.01,0.01,0.03
0.55,-0.49,-9.98,-0.01,0.01,0.02
0.47,-0.43,-9.99,-0.01,0.01,0.02
0.48,-0.46,-9.91,-0.01,0.01,0.03
0.33,-0.47,-10.0,-0.01,0.02,0.03
0.33,-0.47,-10.0,-0.01,0.01,0.02
0.41,-0.41,-9.94,-0.0,0.0,0.03
0.38,-0.41,-9.99,-0.02,0.01,0.03
0.38,-0.41,-9.99,-0.01,0.01,0.03
0.5,-0.39,-10.07,-0.01,0.01,0.02
0.45,-0.42,-10.0,-0.01,0.0,0.03
0.42,-0.4,-9.99,-0.01,0.01,0.02
0.42,-0.4,-9.99,-0.01,0.01,0.03
0.35,-0.44,-10.02,-0.01,0.0,0.02
0.41,-0.41,-9.99,-0.01,0.01,0.02
0.55,-0.43,-10.07,-0.01,0.0,0.03
0.55,-0.43,-10.07,-0.01,0.01,0.02
0.51,-0.34,-10.0,-0.02,0.01,0.03
0.47,-0.44,-10.01,-0.01,0.01,0.02
0.47,-0.44,-10.01,-0.01,0.0,0.03
0.38,-0.44,-9.99,-0.01,0.01,0.02
0.32,-0.43,-9.93,-0.01,0.01,0.03
0.42,-0.47,-10.04,-0.01,0.01,0.04
0.42,-0.47,-10.04,-0.02,0.02,0.03
0.4,-0.34,-9.94,-0.01,0.01,0.02
0.49,-0.43,-9.97,-0.01,0.01,0.03
0.56,-0.37,-9.9,-0.01,-0.0,0.03
0.56,-0.37,-9.9,-0.02,0.01,0.03
0.46,-0.39,-9.94,-0.01,0.01,0.03
0.41,-0.45,-10.01,-0.01,0.01,0.02
0.41,-0.45,-10.01,-0.02,0.01,0.02
0.37,-0.51,-9.98,-0.02,0.01,0.02
0.38,-0.35,-9.99,-0.01,0.01,0.02
0.3,-0.43,-10.02,-0.01,0.01,0.02
0.3,-0.43,-10.02,-0.01,0.0,0.02
0.43,-0.44,-10.05,-0.01,0.0,0.03
0.51,-0.43,-9.9,-0.01,0.01,0.02
0.45,-0.34,-10.04,-0.01,0.01,0.03
0.45,-0.34,-10.04,-0.01,0.01,0.03
0.38,-0.36,-10.01,-0.01,0.0,0.03
0.45,-0.43,-9.97,-0.01,-0.0,0.03
0.45,-0.43,-9.97,-0.01,0.0,0.02
0.45,-0.43,-9.98,-0.01,0.02,0.03
0.46,-0.38,-9.94,-0.01,0.01,0.04
0.45,-0.43,-9.99,-0.01,0.01,0.03
0.45,-0.43,-9.99,-0.01,0.01,0.03
0.43,-0.48,-10.05,-0.01,0.01,0.02
0.43,-0.47,-9.96,-0.01,0.01,0.03
0.42,-0.45,-10.02,-0.01,0.01,0.03
0.42,-0.45,-10.02,-0.02,0.0,0.03
0.41,-0.37,-9.99,-0.02,0.02,0.02
0.48,-0.39,-9.91,-0.01,0.0,0.02
0.48,-0.39,-9.91,-0.01,0.01,0.03
0.45,-0.41,-9.93,-0.01,0.0,0.03
0.47,-0.46,-10.0,-0.01,0.01,0.03
0.44,-0.42,-9.96,-0.01,0.0,0.03
0.44,-0.42,-9.96,-0.01,0.01,0.03
0.39,-0.41,-10.04,-0.01,0.01,0.02
0.42,-0.4,-9.91,-0.02,0.01,0.03
0.43,-0.35,-9.95,-0.01,0.0,0.03
0.43,-0.35,-9.95,-0.01,0.0,0.02
0.42,-0.41,-10.02,-0.02,0.01,0.02
0.45,-0.37,-10.01,-0.01,0.01,0.03
0.45,-0.37,-10.01,-0.01,0.0,0.03
0.47,-0.38,-9.93,-0.01,0.01,0.03
0.38,-0.42,-9.97,-0.01,0.0,0.03
0.42,-0.4,-9.99,-0.01,0.01,0.03
0.42,-0.4,-9.99,-0.01,0.01,0.03
0.41,-0.42,-10.02,-0.01,0.01,0.02
0.47,-0.43,-10.1,-0.01,0.01,0.03
0.41,-0.36,-9.99,-0.01,0.01,0.02
0.41,-0.36,-9.99,-0.01,0.01,0.02
0.39,-0.44,-9.99,-0.01,0.01,0.03
0.45,-0.51,-10.11,-0.01,0.01,0.03
0.45,-0.51,-10.11,-0.01,0.01,0.03
0.43,-0.41,-9.98,-0.01,0.01,0.03
0.45,-0.43,-9.99,-0.01,0.01,0.02
0.48,-0.47,-9.97,-0.01,0.01,0.03
0.48,-0.47,-9.97,-0.02,0.0,0.03
0.46,-0.38,-9.96,-0.02,0.01,0.03
0.38,-0.41,-9.93,-0.02,0.0,0.03
0.36,-0.36,-9.99,-0.01,0.01,0.03
0.36,-0.36,-9.99,-0.01,0.01,0.03
0.43,-0.42,-9.95,-0.01,0.0,0.03
0.43,-0.42,-9.99,-0.0,0.0,0.03
0.43,-0.42,-9.99,-0.01,0.0,0.03
0.41,-0.46,-9.96,-0.01,0.01,0.02
0.43,-0.42,-10.03,-0.01,0.0,0.03
0.41,-0.42,-10.02,-0.01,0.0,0.02
0.41,-0.42,-10.02,-0.02,0.01,0.03
0.4,-0.4,-9.98,-0.01,0.01,0.02
0.38,-0.5,-10.04,-0.01,-0.0,0.03
0.39,-0.39,-10.06,-0.01,0.0,0.03
0.39,-0.39,-10.06,-0.01,0.01,0.03
0.46,-0.38,-10.0,-0.01,0.02,0.03
0.44,-0.46,-9.95,-0.02,0.0,0.03
0.42,-0.36,-9.9,-0.01,0.0,0.03
0.42,-0.36,-9.9,-0.01,0.02,0.03
0.43,-0.46,-9.86,-0.01,-0.01,0.03
0.44,-0.49,-9.96,-0.02,0.01,0.02
0.39,-0.43,-10.05,-0.01,0.01,0.03
0.39,-0.43,-10.05,-0.01,0.01,0.02
0.52,-0.41,-9.86,-0.01,0.01,0.03
0.39,-0.41,-10.06,-0.0,0.01,0.03
0.34,-0.46,-10.01,-0.0,0.01,0.03
0.34,-0.46,-10.01,-0.01,-0.0,0.03
0.35,-0.42,-9.95,-0.01,0.0,0.02
0.4,-0.4,-9.89,-0.01,0.01,0.03
0.44,-0.41,-9.89,-0.01,0.01,0.03
0.44,-0.41,-9.89,-0.01,0.01,0.02
0.41,-0.39,-9.97,-0.01,0.01,0.03
0.45,-0.42,-9.99,-0.01,0.01,0.03
0.45,-0.42,-9.99,-0.02,0.01,0.03
0.41,-0.46,-9.97,-0.01,0.01,0.03
0.28,-0.4,-9.99,-0.01,0.01,0.02
0.29,-0.41,-9.95,-0.01,0.01,0.03
0.29,-0.41,-9.95,-0.01,0.01,0.03
0.44,-0.42,-10.0,-0.01,0.01,0.02
0.52,-0.38,-9.92,-0.01,0.01,0.03
0.51,-0.45,-9.99,-0.01,0.01,0.03
0.51,-0.45,-9.99,-0.01,-0.0,0.03
0.44,-0.44,-10.04,-0.01,0.01,0.03
0.38,-0.49,-9.94,-0.01,0.0,0.03
0.36,-0.38,-9.89,-0.01,0.01,0.03
0.36,-0.38,-9.89,-0.01,0.01,0.02
0.4,-0.38,-9.94,-0.01,0.01,0.02
0.4,-0.36,-9.93,-0.01,0.01,0.03
0.45,-0.49,-10.01,-0.01,0.02,0.02
0.45,-0.49,-10.01,-0.01,0.01,0.03
0.51,-0.45,-9.95,-0.02,0.0,0.03
0.47,-0.37,-9.97,-0.01,0.0,0.03
0.47,-0.37,-9.97,-0.01,0.01,0.03
0.42,-0.48,-9.99,-0.01,0.01,0.02
0.38,-0.4,-10.0,-0.01,0.01,0.02
0.43,-0.44,-9.93,-0.01,0.01,0.03
0.43,-0.44,-9.93,-0.01,0.01,0.03
0.44,-0.39,-9.98,-0.02,0.01,0.02
0.44,-0.37,-9.99,-0.01,0.01,0.02
0.46,-0.4,-10.0,-0.01,0.01,0.03
0.46,-0.4,-10.0,-0.0,0.0,0.03
0.49,-0.41,-10.03,-0.01,0.01,0.02
0.39,-0.44,-9.92,-0.01,0.0,0.03
0.46,-0.4,-10.03,-0.01,0.01,0.03
0.46,-0.4,-10.03,-0.01,0.01,0.02
0.43,-0.45,-9.94,-0.01,0.01,0.03
0.42,-0.45,-9.94,-0.01,0.01,0.03
0.42,-0.45,-9.94,-0.01,0.01,0.03
0.42,-0.45,-10.03,-0.01,0.01,0.02
0.41,-0.43,-9.9,-0.01,0.01,0.03
0.47,-0.38,-10.03,-0.01,0.01,0.03
0.47,-0.38,-10.03,-0.01,0.01,0.03
0.46,-0.4,-9.95,-0.01,0.01,0.03
0.45,-0.44,-10.07,-0.02,0.01,0.02
0.38,-0.39,-9.99,-0.01,0.01,0.02
0.39,-0.4,-9.97,-0.02,-0.0,0.03
0.39,-0.4,-9.97,-0.01,0.0,0.03
0.41,-0.4,-9.92,-0.0,0.01,0.03
0.39,-0.47,-10.06,-0.01,0.01,0.03
0.39,-0.47,-10.06,-0.01,0.0,0.03
0.47,-0.5,-10.15,-0.01,0.01,0.03
0.45,-0.45,-9.93,-0.01,0.01,0.03
0.45,-0.41,-9.93,-0.01,0.01,0.03
0.45,-0.41,-9.93,-0.01,0.01,0.03
0.5,-0.41,-10.02,-0.01,0.0,0.03
0.4,-0.4,-10.16,-0.01,0.0,0.02
0.34,-0.38,-10.1,-0.01,0.0,0.03
0.34,-0.38,-10.1,-0.02,0.02,0.03
0.32,-0.56,-10.12,-0.01,0.02,0.03
0.36,-0.46,-10.07,-0.01,0.01,0.03
0.41,-0.39,-9.96,-0.01,-0.01,0.02
0.41,-0.39,-9.96,-0.01,0.01,0.03
0.6,-0.37,-10.01,-0.01,0.01,0.02
0.57,-0.46,-10.07,-0.01,0.0,0.02
0.4,-0.49,-10.05,-0.01,0.01,0.02
0.4,-0.49,-10.05,-0.01,0.01,0.03
0.36,-0.41,-10.01,-0.01,0.01,0.03
0.42,-0.4,-10.02,-0.01,0.0,0.02
0.42,-0.4,-10.02,-0.01,0.01,0.02
0.5,-0.44,-9.96,-0.01,0.01,0.03
0.5,-0.44,-9.99,-0.02,0.0,0.02
0.51,-0.39,-10.05,-0.01,0.01,0.03
0.51,-0.39,-10.05,-0.01,0.0,0.03
0.43,-0.35,-10.01,-0.01,0.01,0.02
0.39,-0.4,-9.94,-0.01,0.0,0.03
0.37,-0.44,-9.95,-0.01,0.01,0.03
0.37,-0.44,-9.95,-0.01,0.02,0.02
0.46,-0.34,-10.01,-0.01,0.0,0.03
0.51,-0.41,-9.98,-0.01,0.0,0.03
0.51,-0.41,-9.98,-0.01,0.0,0.03
0.55,-0.37,-9.81,-0.01,-0.01,0.03
0.41,-0.45,-9.88,-0.02,-0.02,0.02
0.38,-0.39,-9.76,-0.01,0.03,0.02
0.38,-0.39,-9.76,-0.01,0.01,0.03
0.38,-0.44,-9.99,-0.01,0.01,0.03
0.45,-0.53,-9.95,-0.01,0.01,0.03
0.51,-0.42,-10.0,-0.02,0.01,0.03
0.51,-0.42,-10.0,-0.02,0.01,0.03
0.41,-0.39,-9.99,-0.02,0.01,0.03
0.38,-0.33,-9.97,-0.01,0.01,0.03
0.38,-0.33,-9.97,-0.02,0.0,0.03
0.37,-0.39,-10.08,-0.01,0.0,0.03
0.4,-0.37,-9.99,-0.01,0.01,0.02
0.39,-0.49,-9.92,-0.01,-0.0,0.03
0.39,-0.49,-9.92,-0.01,0.01,0.03
0.48,-0.44,-9.97,-0.02,0.0,0.03
0.5,-0.4,-9.96,-0.01,0.01,0.03
0.44,-0.46,-10.06,-0.01,0.01,0.02
0.44,-0.46,-10.06,-0.01,0.01,0.03
0.42,-0.36,-10.03,-0.01,0.01,0.03
0.39,-0.45,-10.1,-0.01,0.01,0.02
0.39,-0.45,-10.1,-0.01,0.01,0.02
0.34,-0.34,-10.01,-0.01,0.01,0.03
0.39,-0.39,-10.04,-0.02,0.0,0.03
0.41,-0.41,-10.02,-0.01,0.01,0.03
0.41,-0.41,-10.02,-0.01,0.0,0.03
0.42,-0.39,-10.03,-0.0,0.01,0.03
0.42,-0.46,-9.97,-0.02,0.01,0.03
0.36,-0.48,-9.93,-0.01,0.01,0.02
0.36,-0.48,-9.93,-0.01,0.01,0.03
0.36,-0.46,-9.97,-0.02,0.01,0.03
0.46,-0.34,-9.98,-0.01,0.01,0.02
0.46,-0.34,-9.98,-0.01,0.01,0.03
0.53,-0.34,-9.98,-0.01,0.0,0.03
0.47,-0.49,-10.03,-0.01,0.0,0.03
0.38,-0.5,-9.94,-0.01,0.0,0.03
0.38,-0.5,-9.94,-0.01,0.01,0.03
0.32,-0.47,-10.04,-0.02,0.01,0.03
0.35,-0.34,-10.05,-0.01,0.01,0.02
0.37,-0.32,-10.02,-0.01,0.01,0.03
0.37,-0.32,-10.02,-0.01,0.01,0.03
0.46,-0.34,-10.07,-0.01,0.01,0.03
0.43,-0.4,-9.93,-0.01,0.01,0.03
0.43,-0.4,-9.93,-0.01,0.0,0.02
0.5,-0.46,-9.95,-0.01,0.02,0.03
0.49,-0.46,-9.98,-0.01,0.01,0.03
0.39,-0.39,-10.02,-0.01,0.01,0.03
0.39,-0.39,-10.02,-0.02,0.01,0.03
0.42,-0.39,-9.96,-0.01,0.01,0.02
0.41,-0.42,-9.96,-0.01,0.01,0.03
0.48,-0.4,-9.97,-0.01,0.01,0.02
0.48,-0.4,-9.97,-0.01,0.02,0.03
0.45,-0.46,-9.95,-0.01,0.01,0.03
0.46,-0.37,-9.98,-0.02,0.01,0.02
0.46,-0.37,-9.98,-0.02,0.0,0.02
0.34,-0.4,-10.01,-0.01,0.01,0.03
0.38,-0.46,-10.0,-0.02,0.01,0.02
0.4,-0.41,-10.02,-0.01,0.0,0.03
0.4,-0.41,-10.02,-0.01,0.01,0.03
0.38,-0.42,-10.01,-0.01,0.01,0.02
0.44,-0.44,-9.99,-0.01,0.01,0.02
0.46,-0.41,-10.05,-0.01,0.01,0.03
0.46,-0.41,-10.05,-0.01,0.01,0.02
0.44,-0.4,-9.95,-0.01,0.0,0.02
0.46,-0.4,-9.97,-0.01,0.0,0.03
0.46,-0.4,-9.97,-0.01,0.01,0.02
0.37,-0.41,-9.96,-0.01,0.01,0.03
0.44,-0.42,-10.03,-0.01,0.01,0.03
0.5,-0.45,-10.02,-0.01,0.01,0.03
0.5,-0.45,-10.02,-0.01,0.0,0.03
0.42,-0.43,-10.01,-0.01,0.0,0.03
0.34,-0.37,-9.98,-0.01,0.01,0.03
0.37,-0.41,-10.01,-0.01,0.0,0.03
0.37,-0.41,-10.01,-0.02,0.0,0.02
0.42,-0.47,-9.99,-0.01,0.01,0.03
0.44,-0.39,-9.98,-0.01,0.01,0.03
0.44,-0.39,-9.98,-0.01,0.0,0.03
0.49,-0.44,-10.05,-0.02,0.01,0.02
0.47,-0.45,-10.05,-0.01,0.0,0.02
0.43,-0.47,-9.98,-0.02,0.01,0.03
0.43,-0.47,-9.98,-0.01,0.01,0.02
0.37,-0.44,-10.03,-0.0,0.01,0.02
0.49,-0.37,-9.96,-0.01,0.0,0.02
0.37,-0.43,-10.02,-0.01,0.01,0.02
0.37,-0.43,-10.02,-0.01,0.01,0.02
0.47,-0.43,-9.93,-0.01,0.0,0.01
0.45,-0.47,-10.07,-0.01,0.01,0.03
0.45,-0.47,-10.07,-0.01,0.01,0.03
0.42,-0.36,-10.03,-0.01,0.0,0.02
0.42,-0.41,-10.01,-0.01,0.01,0.03
0.37,-0.45,-9.92,-0.01,0.01,0.03
0.37,-0.45,-9.92,-0.01,0.02,0.03
0.45,-0.43,-9.96,-0.01,0.01,0.03
0.46,-0.42,-10.05,-0.01,0.0,0.03
0.45,-0.36,-9.96,-0.02,0.01,0.02
0.45,-0.36,-9.96,-0.01,0.01,0.02
0.48,-0.36,-10.02,-0.02,0.01,0.02
0.5,-0.43,-10.04,-0.01,0.0,0.03
0.5,-0.43,-10.04,-0.01,0.01,0.02
0.37,-0.39,-9.95,-0.01,0.01,0.02
0.46,-0.46,-10.01,-0.01,0.01,0.03
0.45,-0.39,-10.02,-0.01,0.01,0.03
0.45,-0.39,-10.02,-0.02,0.0,0.03
0.4,-0.42,-10.0,-0.01,0.01,0.03
0.48,-0.43,-9.93,-0.02,0.01,0.03
0.48,-0.43,-9.93,-0.01,0.0,0.02
0.44,-0.4,-10.0,-0.01,0.0,0.03
0.46,-0.39,-9.98,-0.01,0.01,0.03
0.39,-0.41,-9.94,-0.01,0.01,0.03
0.39,-0.41,-9.94,-0.01,0.01,0.03
0.49,-0.4,-9.99,-0.01,0.01,0.03
0.46,-0.4,-10.03,-0.01,0.0,0.03
0.43,-0.43,-9.98,-0.01,0.0,0.02
0.43,-0.43,-9.98,-0.01,0.01,0.03
0.42,-0.42,-9.99,-0.01,0.01,0.02
0.38,-0.47,-10.01,-0.0,0.0,0.03
0.38,-0.47,-10.01,-0.01,0.0,0.03
0.38,-0.42,-9.9,-0.01,-0.0,0.03
0.4,-0.4,-10.05,-0.01,0.02,0.02
0.39,-0.43,-10.07,-0.01,0.01,0.02
0.39,-0.43,-10.07,-0.01,0.0,0.03
0.46,-0.38,-9.97,-0.01,0.0,0.02
0.44,-0.39,-9.96,-0.01,0.0,0.02
0.52,-0.41,-10.06,-0.02,0.01,0.03
0.52,-0.41,-10.06,-0.02,0.01,0.02
0.4,-0.43,-9.97,-0.02,0.0,0.03
0.39,-0.46,-9.91,-0.02,0.02,0.03
0.39,-0.46,-9.91,-0.01,0.02,0.03
0.47,-0.42,-9.9,-0.01,0.0,0.03
0.41,-0.42,-9.97,-0.01,0.01,0.03
0.45,-0.39,-9.99,-0.01,0.01,0.02
0.45,-0.39,-9.99,-0.01,0.01,0.02
0.4,-0.4,-10.01,-0.01,0.0,0.02
0.38,-0.4,-9.99,-0.02,0.01,0.02
0.44,-0.4,-9.99,-0.01,0.0,0.03
0.44,-0.4,-9.99,-0.01,0.0,0.02
0.46,-0.45,-10.05,-0.01,0.01,0.02
0.52,-0.44,-9.99,-0.01,0.01,0.02
0.44,-0.45,-9.97,-0.01,0.01,0.02
0.44,-0.45,-9.97,-0.01,0.0,0.03
0.34,-0.43,-10.07,-0.01,0.0,0.02
0.35,-0.39,-10.0,-0.01,0.01,0.03
0.35,-0.39,-10.0,-0.01,0.01,0.03
0.37,-0.42,-10.04,-0.01,0.01,0.03
0.38,-0.41,-10.0,-0.01,0.02,0.03
0.42,-0.44,-9.98,-0.01,0.02,0.02
0.42,-0.44,-9.98,-0.01,-0.0,0.03
0.43,-0.48,-9.98,-0.01,0.0,0.03
0.47,-0.48,-9.97,-0.01,0.0,0.02
0.4,-0.34,-9.96,-0.01,0.01,0.03
0.4,-0.34,-9.96,-0.01,0.01,0.03
0.47,-0.29,-9.91,-0.01,0.01,0.03
0.48,-0.38,-9.97,-0.01,0.01,0.03
0.48,-0.38,-9.97,-0.01,0.01,0.03
0.37,-0.5,-10.07,-0.01,0.01,0.03
0.39,-0.54,-9.96,-0.01,-0.0,0.03
0.43,-0.38,-10.07,-0.01,0.02,0.03
0.43,-0.38,-10.07,-0.01,0.01,0.03
0.35,-0.34,-9.96,-0.01,0.01,0.03
0.45,-0.38,-10.04,-0.01,0.01,0.03
0.53,-0.44,-10.0,-0.01,0.0,0.02
0.53,-0.44,-10.0,-0.01,0.01,0.03
0.5,-0.46,-9.98,-0.01,0.01,0.03
0.45,-0.42,-10.09,-0.01,0.01,0.02
0.45,-0.42,-10.09,-0.0,0.02,0.03
0.45,-0.37,-9.92,-0.01,0.0,0.03
0.45,-0.41,-9.91,-0.01,0.02,0.03
0.48,-0.52,-9.98,-0.01,0.0,0.03
0.48,-0.52,-9.98,-0.02,-0.0,0.03
0.39,-0.4,-10.05,-0.02,0.01,0.03
